t_host_s,seq,base_us,idx,ax,ay,az,t_dev_us
1762339436.737143,5797,1149208984,0,1194,360,3108,1149208984
1762339436.737143,5797,1149208984,1,1234,408,3019,1149210184
1762339436.737143,5797,1149208984,2,1281,401,2851,1149211384
1762339436.737143,5797,1149208984,3,1300,399,2707,1149212585
1762339436.737143,5797,1149208984,4,1319,384,2364,1149213785
1762339436.737143,5797,1149208984,5,1338,398,2467,1149214986
1762339436.737143,5797,1149208984,6,1357,397,2281,1149216186
1762339436.737143,5797,1149208984,7,1402,411,2147,1149217387
1762339436.737143,5797,1149208984,8,1435,430,2042,1149218587
1762339436.737143,5797,1149208984,9,1412,437,1868,1149219788
1762339436.737143,5797,1149208984,10,1462,444,1710,1149220988
1762339436.737143,5797,1149208984,11,1511,460,1635,1149222189
1762339436.737143,5797,1149208984,12,1563,466,1461,1149223389
1762339436.737143,5797,1149208984,13,1585,458,1346,1149224590
1762339436.737143,5797,1149208984,14,1644,457,1283,1149225790
1762339436.737143,5797,1149208984,15,1662,446,1274,1149226991
1762339436.737143,5797,1149208984,16,1677,454,1290,1149228191
1762339436.737143,5797,1149208984,17,1759,469,1345,1149229392
1762339436.737143,5797,1149208984,18,2018,459,1394,1149230592
1762339436.737143,5797,1149208984,19,1868,403,1478,1149231793
1762339436.782905,5798,1149248046,0,1923,396,1587,1149248046
1762339436.782905,5798,1149248046,1,1930,372,1714,1149249246
1762339436.782905,5798,1149248046,2,1972,380,1763,1149250446
1762339436.782905,5798,1149248046,3,1986,369,1901,1149251647
1762339436.782905,5798,1149248046,4,2039,357,1998,1149252847
1762339436.782905,5798,1149248046,5,2081,333,2024,1149254048
1762339436.782905,5798,1149248046,6,2140,323,2121,1149255248
1762339436.782905,5798,1149248046,7,2160,302,2183,1149256449
1762339436.782905,5798,1149248046,8,2175,302,2214,1149257649
1762339436.782905,5798,1149248046,9,2183,300,2182,1149258850
1762339436.782905,5798,1149248046,10,2198,319,2134,1149260050
1762339436.782905,5798,1149248046,11,2219,378,2025,1149261251
1762339436.782905,5798,1149248046,12,2200,413,1976,1149262451
1762339436.782905,5798,1149248046,13,2221,487,1822,1149263652
1762339436.782905,5798,1149248046,14,2247,535,1661,1149264852
1762339436.782905,5798,1149248046,15,2270,631,1331,1149266053
1762339436.782905,5798,1149248046,16,2233,710,1465,1149267253
1762339436.782905,5798,1149248046,17,2263,751,1294,1149268454
1762339436.782905,5798,1149248046,18,2276,833,1222,1149269654
1762339436.782905,5798,1149248046,19,2282,863,1164,1149270855
1762339436.877655,5799,1149287109,0,2271,946,1063,1149287109
1762339436.877655,5799,1149287109,1,2251,977,939,1149288309
1762339436.877655,5799,1149287109,2,2248,1067,887,1149289509
1762339436.877655,5799,1149287109,3,2272,1146,760,1149290710
1762339436.877655,5799,1149287109,4,2242,1160,662,1149291910
1762339436.877655,5799,1149287109,5,2257,1221,596,1149293111
1762339436.877655,5799,1149287109,6,2248,1260,552,1149294311
1762339436.877655,5799,1149287109,7,2226,1318,473,1149295512
1762339436.877655,5799,1149287109,8,2256,1313,416,1149296712
1762339436.877655,5799,1149287109,9,2240,1329,424,1149297913
1762339436.877655,5799,1149287109,10,2256,1327,400,1149299113
1762339436.877655,5799,1149287109,11,2267,1344,380,1149300314
1762339436.877655,5799,1149287109,12,2253,1327,362,1149301514
1762339436.877655,5799,1149287109,13,2251,1300,373,1149302715
1762339436.877655,5799,1149287109,14,2305,1025,354,1149303915
1762339436.877655,5799,1149287109,15,2290,1247,378,1149305116
1762339436.877655,5799,1149287109,16,2288,1195,402,1149306316
1762339436.877655,5799,1149287109,17,2331,1159,402,1149307517
1762339436.877655,5799,1149287109,18,2366,1112,410,1149308717
1762339436.877655,5799,1149287109,19,2433,1048,408,1149309918
1762339436.878260,5800,1149326171,0,2461,981,403,1149326171
1762339436.878260,5800,1149326171,1,2431,948,370,1149327371
1762339436.878260,5800,1149326171,2,2439,887,290,1149328571
1762339436.878260,5800,1149326171,3,2446,880,258,1149329772
1762339436.878260,5800,1149326171,4,2456,924,142,1149330972
1762339436.878260,5800,1149326171,5,2456,933,77,1149332173
1762339436.878260,5800,1149326171,6,2418,984,-4,1149333373
1762339436.878260,5800,1149326171,7,2404,1029,-34,1149334574
1762339436.878260,5800,1149326171,8,2355,1060,-99,1149335774
1762339436.878260,5800,1149326171,9,2315,1118,-154,1149336975
1762339436.878260,5800,1149326171,10,2291,1163,-217,1149338175
1762339436.878260,5800,1149326171,11,2265,1198,-295,1149339376
1762339436.878260,5800,1149326171,12,2228,1213,-377,1149340576
1762339436.878260,5800,1149326171,13,2174,1198,-428,1149341777
1762339436.878260,5800,1149326171,14,2152,1184,-502,1149342977
1762339436.878260,5800,1149326171,15,2126,1189,-576,1149344178
1762339436.878260,5800,1149326171,16,2071,1176,-619,1149345378
1762339436.878260,5800,1149326171,17,2052,1099,-653,1149346579
1762339436.878260,5800,1149326171,18,1990,1046,-681,1149347779
1762339436.878260,5800,1149326171,19,1950,1028,-692,1149348980
1762339436.916240,5801,1149365234,0,1917,997,-713,1149365234
1762339436.916240,5801,1149365234,1,1887,1018,-761,1149366434
1762339436.916240,5801,1149365234,2,1857,1023,-796,1149367634
1762339436.916240,5801,1149365234,3,1767,1045,-859,1149368835
1762339436.916240,5801,1149365234,4,1730,1104,-903,1149370035
1762339436.916240,5801,1149365234,5,1674,1137,-978,1149371236
1762339436.916240,5801,1149365234,6,1614,1138,-1015,1149372436
1762339436.916240,5801,1149365234,7,1571,1148,-1037,1149373637
1762339436.916240,5801,1149365234,8,1504,1135,-1117,1149374837
1762339436.916240,5801,1149365234,9,1461,1098,-1416,1149376038
1762339436.916240,5801,1149365234,10,1264,847,-1989,1149377238
1762339436.916240,5801,1149365234,11,1477,1004,-556,1149378439
1762339436.916240,5801,1149365234,12,1369,1505,-437,1149379639
1762339436.916240,5801,1149365234,13,966,1539,-806,1149380840
1762339436.916240,5801,1149365234,14,958,1480,-823,1149382040
1762339436.916240,5801,1149365234,15,996,1343,-386,1149383241
1762339436.916240,5801,1149365234,16,706,1095,13,1149384441
1762339436.916240,5801,1149365234,17,670,758,457,1149385642
1762339436.916240,5801,1149365234,18,625,542,622,1149386842
1762339436.916240,5801,1149365234,19,602,553,810,1149388043
1762339437.018031,5802,1149404296,0,578,558,1062,1149404296
1762339437.018031,5802,1149404296,1,540,594,1171,1149405496
1762339437.018031,5802,1149404296,2,551,632,1499,1149406696
1762339437.018031,5802,1149404296,3,435,610,1923,1149407897
1762339437.018031,5802,1149404296,4,385,507,2431,1149409097
1762339437.018031,5802,1149404296,5,274,323,2698,1149410298
1762339437.018031,5802,1149404296,6,298,301,3180,1149411498
1762339437.018031,5802,1149404296,7,266,188,3667,1149412699
1762339437.018031,5802,1149404296,8,232,47,3885,1149413899
1762339437.018031,5802,1149404296,9,261,58,4051,1149415100
1762339437.018031,5802,1149404296,10,183,52,4005,1149416300
1762339437.018031,5802,1149404296,11,224,32,4251,1149417501
1762339437.018031,5802,1149404296,12,215,77,4606,1149418701
1762339437.018031,5802,1149404296,13,218,133,5329,1149419902
1762339437.018031,5802,1149404296,14,149,196,5925,1149421102
1762339437.018031,5802,1149404296,15,190,266,6363,1149422303
1762339437.018031,5802,1149404296,16,214,301,6820,1149423503
1762339437.018031,5802,1149404296,17,305,331,7235,1149424704
1762339437.018031,5802,1149404296,18,394,409,7652,1149425904
1762339437.018031,5802,1149404296,19,365,408,7845,1149427105
1762339437.018674,5803,1149443359,0,395,525,8079,1149443359
1762339437.018674,5803,1149443359,1,467,647,8409,1149444559
1762339437.018674,5803,1149443359,2,536,867,8540,1149445759
1762339437.018674,5803,1149443359,3,539,1033,8864,1149446960
1762339437.018674,5803,1149443359,4,678,1164,8967,1149448160
1762339437.018674,5803,1149443359,5,688,1397,9324,1149449361
1762339437.018674,5803,1149443359,6,622,1594,9317,1149450561
1762339437.018674,5803,1149443359,7,682,1705,9445,1149451762
1762339437.018674,5803,1149443359,8,654,1936,9645,1149452962
1762339437.018674,5803,1149443359,9,681,2151,9711,1149454163
1762339437.018674,5803,1149443359,10,711,2513,9976,1149455363
1762339437.018674,5803,1149443359,11,693,2500,10320,1149456564
1762339437.018674,5803,1149443359,12,734,2701,10484,1149457764
1762339437.018674,5803,1149443359,13,749,2853,10749,1149458965
1762339437.018674,5803,1149443359,14,735,2922,10910,1149460165
1762339437.018674,5803,1149443359,15,714,3005,11160,1149461366
1762339437.018674,5803,1149443359,16,718,3104,11251,1149462566
1762339437.018674,5803,1149443359,17,688,3151,11413,1149463767
1762339437.018674,5803,1149443359,18,689,3217,11553,1149464967
1762339437.018674,5803,1149443359,19,558,3314,11629,1149466168
1762339437.019053,5804,1149482421,0,464,3356,11712,1149482421
1762339437.019053,5804,1149482421,1,451,3403,11726,1149483621
1762339437.019053,5804,1149482421,2,511,3449,11572,1149484821
1762339437.019053,5804,1149482421,3,491,3478,11531,1149486022
1762339437.019053,5804,1149482421,4,484,3471,11315,1149487222
1762339437.019053,5804,1149482421,5,512,3436,11110,1149488423
1762339437.019053,5804,1149482421,6,523,3387,10969,1149489623
1762339437.019053,5804,1149482421,7,497,3349,10603,1149490824
1762339437.019053,5804,1149482421,8,537,3360,10148,1149492024
1762339437.019053,5804,1149482421,9,574,3323,9946,1149493225
1762339437.019053,5804,1149482421,10,590,3257,9605,1149494425
1762339437.019053,5804,1149482421,11,648,3253,9331,1149495626
1762339437.019053,5804,1149482421,12,691,3178,9048,1149496826
1762339437.019053,5804,1149482421,13,652,3084,8875,1149498027
1762339437.019053,5804,1149482421,14,661,3022,8461,1149499227
1762339437.019053,5804,1149482421,15,657,2959,7941,1149500428
1762339437.019053,5804,1149482421,16,666,2944,7438,1149501628
1762339437.019053,5804,1149482421,17,626,2927,7217,1149502829
1762339437.019053,5804,1149482421,18,680,2968,6804,1149504029
1762339437.019053,5804,1149482421,19,566,2993,6461,1149505230
1762339437.052269,5805,1149521484,0,557,3058,6253,1149521484
1762339437.052269,5805,1149521484,1,542,3061,5926,1149522684
1762339437.052269,5805,1149521484,2,512,3082,5573,1149523884
1762339437.052269,5805,1149521484,3,264,3044,5151,1149525085
1762339437.052269,5805,1149521484,4,539,2985,5110,1149526285
1762339437.052269,5805,1149521484,5,482,2949,4804,1149527486
1762339437.052269,5805,1149521484,6,439,2875,4588,1149528686
1762339437.052269,5805,1149521484,7,407,2813,4488,1149529887
1762339437.052269,5805,1149521484,8,454,2809,4298,1149531087
1762339437.052269,5805,1149521484,9,420,2710,4125,1149532288
1762339437.052269,5805,1149521484,10,398,2609,4013,1149533488
1762339437.052269,5805,1149521484,11,462,2481,3797,1149534689
1762339437.052269,5805,1149521484,12,579,2454,3612,1149535889
1762339437.052269,5805,1149521484,13,506,2261,3367,1149537090
1762339437.052269,5805,1149521484,14,541,2188,3250,1149538290
1762339437.052269,5805,1149521484,15,550,1872,3096,1149539491
1762339437.052269,5805,1149521484,16,571,1942,2901,1149540691
1762339437.052269,5805,1149521484,17,578,1777,2820,1149541892
1762339437.052269,5805,1149521484,18,682,1630,2635,1149543092
1762339437.052269,5805,1149521484,19,725,1537,2507,1149544293
1762339437.148550,5806,1149560546,0,787,1374,2405,1149560546
1762339437.148550,5806,1149560546,1,828,1210,2300,1149561746
1762339437.148550,5806,1149560546,2,864,1115,2251,1149562946
1762339437.148550,5806,1149560546,3,1025,955,2095,1149564147
1762339437.148550,5806,1149560546,4,1054,816,2067,1149565347
1762339437.148550,5806,1149560546,5,1026,723,1940,1149566548
1762339437.148550,5806,1149560546,6,1123,681,1810,1149567748
1762339437.148550,5806,1149560546,7,1189,576,1756,1149568949
1762339437.148550,5806,1149560546,8,1229,554,1589,1149570149
1762339437.148550,5806,1149560546,9,1224,496,1452,1149571350
1762339437.148550,5806,1149560546,10,1279,481,1263,1149572550
1762339437.148550,5806,1149560546,11,1332,450,1179,1149573751
1762339437.148550,5806,1149560546,12,1357,525,981,1149574951
1762339437.148550,5806,1149560546,13,1347,537,810,1149576152
1762339437.148550,5806,1149560546,14,1386,589,694,1149577352
1762339437.148550,5806,1149560546,15,1431,642,518,1149578553
1762339437.148550,5806,1149560546,16,1475,674,349,1149579753
1762339437.148550,5806,1149560546,17,1518,708,237,1149580954
1762339437.148550,5806,1149560546,18,1482,715,181,1149582154
1762339437.148550,5806,1149560546,19,1508,742,78,1149583355
1762339437.149102,5807,1149599609,0,1561,749,-39,1149599609
1762339437.149102,5807,1149599609,1,1602,754,-98,1149600809
1762339437.149102,5807,1149599609,2,1623,797,-189,1149602009
1762339437.149102,5807,1149599609,3,1689,829,-278,1149603210
1762339437.149102,5807,1149599609,4,1702,837,-372,1149604410
1762339437.149102,5807,1149599609,5,1694,855,-427,1149605611
1762339437.149102,5807,1149599609,6,1718,863,-519,1149606811
1762339437.149102,5807,1149599609,7,1731,878,-572,1149608012
1762339437.149102,5807,1149599609,8,1755,860,-643,1149609212
1762339437.149102,5807,1149599609,9,1776,877,-674,1149610413
1762339437.149102,5807,1149599609,10,1771,890,-706,1149611613
1762339437.149102,5807,1149599609,11,1794,907,-724,1149612814
1762339437.149102,5807,1149599609,12,1791,960,-744,1149614014
1762339437.149102,5807,1149599609,13,1787,984,-762,1149615215
1762339437.149102,5807,1149599609,14,1768,1063,-748,1149616415
1762339437.149102,5807,1149599609,15,1761,1137,-748,1149617616
1762339437.149102,5807,1149599609,16,1769,1188,-741,1149618816
1762339437.149102,5807,1149599609,17,1826,1203,-685,1149620017
1762339437.149102,5807,1149599609,18,1910,1256,-599,1149621217
1762339437.149102,5807,1149599609,19,1872,1277,-511,1149622418
1762339437.187542,5808,1149638671,0,1868,1289,-364,1149638671
1762339437.187542,5808,1149638671,1,1905,1311,-232,1149639871
1762339437.187542,5808,1149638671,2,1941,1335,-204,1149641071
1762339437.187542,5808,1149638671,3,1959,1333,-154,1149642272
1762339437.187542,5808,1149638671,4,1938,1306,-141,1149643472
1762339437.187542,5808,1149638671,5,2025,1304,-213,1149644673
1762339437.187542,5808,1149638671,6,1997,1251,-219,1149645873
1762339437.187542,5808,1149638671,7,1916,1212,-286,1149647074
1762339437.187542,5808,1149638671,8,1861,1069,-385,1149648274
1762339437.187542,5808,1149638671,9,1840,941,-398,1149649475
1762339437.187542,5808,1149638671,10,1777,791,-431,1149650675
1762339437.187542,5808,1149638671,11,1698,729,-528,1149651876
1762339437.187542,5808,1149638671,12,1723,683,-550,1149653076
1762339437.187542,5808,1149638671,13,1750,620,-664,1149654277
1762339437.187542,5808,1149638671,14,1768,622,-723,1149655477
1762339437.187542,5808,1149638671,15,1772,614,-812,1149656678
1762339437.187542,5808,1149638671,16,1774,662,-836,1149657878
1762339437.187542,5808,1149638671,17,1731,717,-898,1149659079
1762339437.187542,5808,1149638671,18,1670,742,-957,1149660279
1762339437.187542,5808,1149638671,19,1660,850,-984,1149661480
1762339437.270523,5809,1149677734,0,1608,969,-1022,1149677734
1762339437.270523,5809,1149677734,1,1508,987,-1089,1149678934
1762339437.270523,5809,1149677734,2,1360,1057,-1130,1149680134
1762339437.270523,5809,1149677734,3,1283,1143,-1168,1149681335
1762339437.270523,5809,1149677734,4,1254,1200,-1165,1149682535
1762339437.270523,5809,1149677734,5,1037,1232,-1139,1149683736
1762339437.270523,5809,1149677734,6,993,1367,-1132,1149684936
1762339437.270523,5809,1149677734,7,873,1488,-1140,1149686137
1762339437.270523,5809,1149677734,8,821,1524,-1168,1149687337
1762339437.270523,5809,1149677734,9,623,1544,-1145,1149688538
1762339437.270523,5809,1149677734,10,619,1548,-1153,1149689738
1762339437.270523,5809,1149677734,11,533,1500,-1270,1149690939
1762339437.270523,5809,1149677734,12,463,1446,-707,1149692139
1762339437.270523,5809,1149677734,13,495,1465,-166,1149693340
1762339437.270523,5809,1149677734,14,219,1247,-123,1149694540
1762339437.270523,5809,1149677734,15,162,1197,146,1149695741
1762339437.270523,5809,1149677734,16,122,1002,600,1149696941
1762339437.270523,5809,1149677734,17,98,870,872,1149698142
1762339437.270523,5809,1149677734,18,154,822,1307,1149699342
1762339437.270523,5809,1149677734,19,-10,553,1874,1149700543
1762339437.277055,5810,1149716796,0,6,387,1974,1149716796
1762339437.277055,5810,1149716796,1,-63,169,2392,1149717996
1762339437.277055,5810,1149716796,2,-140,146,2800,1149719196
1762339437.277055,5810,1149716796,3,-54,7,3167,1149720397
1762339437.277055,5810,1149716796,4,-104,122,3527,1149721597
1762339437.277055,5810,1149716796,5,-155,37,4059,1149722798
1762339437.277055,5810,1149716796,6,-193,125,4392,1149723998
1762339437.277055,5810,1149716796,7,-229,199,4633,1149725199
1762339437.277055,5810,1149716796,8,-365,397,5083,1149726399
1762339437.277055,5810,1149716796,9,-383,509,5592,1149727600
1762339437.277055,5810,1149716796,10,-381,619,5966,1149728800
1762339437.277055,5810,1149716796,11,-429,782,6049,1149730001
1762339437.277055,5810,1149716796,12,-354,835,6044,1149731201
1762339437.277055,5810,1149716796,13,-420,926,6193,1149732402
1762339437.277055,5810,1149716796,14,-387,1105,6597,1149733602
1762339437.277055,5810,1149716796,15,-483,1168,7502,1149734803
1762339437.277055,5810,1149716796,16,-338,1359,8552,1149736003
1762339437.277055,5810,1149716796,17,-331,1497,9179,1149737204
1762339437.277055,5810,1149716796,18,-150,1611,9620,1149738404
1762339437.277055,5810,1149716796,19,-129,1703,10514,1149739605
1762339437.277902,5811,1149755859,0,-3,1891,10858,1149755859
1762339437.277902,5811,1149755859,1,0,2078,11050,1149757059
1762339437.277902,5811,1149755859,2,13,2247,11387,1149758259
1762339437.277902,5811,1149755859,3,4,2394,11740,1149759460
1762339437.277902,5811,1149755859,4,82,2727,12396,1149760660
1762339437.277902,5811,1149755859,5,112,3139,12529,1149761861
1762339437.277902,5811,1149755859,6,276,3343,12665,1149763061
1762339437.277902,5811,1149755859,7,386,3712,12917,1149764262
1762339437.277902,5811,1149755859,8,401,3967,13039,1149765462
1762339437.277902,5811,1149755859,9,425,4349,13174,1149766663
1762339437.277902,5811,1149755859,10,465,4312,13342,1149767863
1762339437.277902,5811,1149755859,11,491,4555,13415,1149769064
1762339437.277902,5811,1149755859,12,502,4711,13377,1149770264
1762339437.277902,5811,1149755859,13,351,4778,13457,1149771465
1762339437.277902,5811,1149755859,14,193,4859,13303,1149772665
1762339437.277902,5811,1149755859,15,254,5007,13186,1149773866
1762339437.277902,5811,1149755859,16,328,5005,13033,1149775066
1762339437.277902,5811,1149755859,17,347,5013,12652,1149776267
1762339437.277902,5811,1149755859,18,312,4912,12339,1149777467
1762339437.277902,5811,1149755859,19,225,4742,11430,1149778668
1762339437.388803,5812,1149794921,0,159,4592,10540,1149794921
1762339437.388803,5812,1149794921,1,172,4342,10027,1149796121
1762339437.388803,5812,1149794921,2,173,4181,9875,1149797321
1762339437.388803,5812,1149794921,3,144,4090,9599,1149798522
1762339437.388803,5812,1149794921,4,65,3847,9177,1149799722
1762339437.388803,5812,1149794921,5,93,3533,8932,1149800923
1762339437.388803,5812,1149794921,6,134,3282,8458,1149802123
1762339437.388803,5812,1149794921,7,2,3224,7952,1149803324
1762339437.388803,5812,1149794921,8,83,3284,7491,1149804524
1762339437.388803,5812,1149794921,9,23,3328,7355,1149805725
1762339437.388803,5812,1149794921,10,-21,3375,6983,1149806925
1762339437.388803,5812,1149794921,11,27,3338,6640,1149808126
1762339437.388803,5812,1149794921,12,-12,3278,6504,1149809326
1762339437.388803,5812,1149794921,13,-77,3168,6229,1149810527
1762339437.388803,5812,1149794921,14,-6,3174,5908,1149811727
1762339437.388803,5812,1149794921,15,232,3078,5519,1149812928
1762339437.388803,5812,1149794921,16,24,2998,5457,1149814128
1762339437.388803,5812,1149794921,17,15,2920,5183,1149815329
1762339437.388803,5812,1149794921,18,46,2808,4825,1149816529
1762339437.388803,5812,1149794921,19,162,2690,4666,1149817730
1762339437.389271,5813,1149833984,0,138,2473,4352,1149833984
1762339437.389271,5813,1149833984,1,172,2419,4105,1149835184
1762339437.389271,5813,1149833984,2,168,2257,3665,1149836384
1762339437.389271,5813,1149833984,3,222,2121,3627,1149837585
1762339437.389271,5813,1149833984,4,281,2041,3365,1149838785
1762339437.389271,5813,1149833984,5,287,1868,3104,1149839986
1762339437.389271,5813,1149833984,6,297,1723,2987,1149841186
1762339437.389271,5813,1149833984,7,379,1669,2672,1149842387
1762339437.389271,5813,1149833984,8,401,1498,2438,1149843587
1762339437.389271,5813,1149833984,9,457,1335,2306,1149844788
1762339437.389271,5813,1149833984,10,344,1186,2084,1149845988
1762339437.389271,5813,1149833984,11,382,1132,1826,1149847189
1762339437.389271,5813,1149833984,12,437,975,1564,1149848389
1762339437.389271,5813,1149833984,13,491,852,1435,1149849590
1762339437.389271,5813,1149833984,14,485,844,1220,1149850790
1762339437.389271,5813,1149833984,15,595,725,987,1149851991
1762339437.389271,5813,1149833984,16,624,666,860,1149853191
1762339437.389271,5813,1149833984,17,632,563,700,1149854392
1762339437.389271,5813,1149833984,18,713,554,569,1149855592
1762339437.389271,5813,1149833984,19,789,433,496,1149856793
1762339437.412530,5814,1149873046,0,808,419,440,1149873046
1762339437.412530,5814,1149873046,1,817,422,408,1149874246
1762339437.412530,5814,1149873046,2,924,370,357,1149875446
1762339437.412530,5814,1149873046,3,930,376,330,1149876647
1762339437.412530,5814,1149873046,4,1027,447,206,1149877847
1762339437.412530,5814,1149873046,5,1091,431,143,1149879048
1762339437.412530,5814,1149873046,6,1092,452,101,1149880248
1762339437.412530,5814,1149873046,7,1090,492,39,1149881449
1762339437.412530,5814,1149873046,8,1118,513,-43,1149882649
1762339437.412530,5814,1149873046,9,1206,600,-77,1149883850
1762339437.412530,5814,1149873046,10,1228,718,-106,1149885050
1762339437.412530,5814,1149873046,11,1230,821,-199,1149886251
1762339437.412530,5814,1149873046,12,1323,885,-280,1149887451
1762339437.412530,5814,1149873046,13,1336,974,-333,1149888652
1762339437.412530,5814,1149873046,14,1381,1050,-374,1149889852
1762339437.412530,5814,1149873046,15,1356,1075,-461,1149891053
1762339437.412530,5814,1149873046,16,1395,1176,-500,1149892253
1762339437.412530,5814,1149873046,17,1400,1210,-555,1149893454
1762339437.412530,5814,1149873046,18,1409,1314,-653,1149894654
1762339437.412530,5814,1149873046,19,1428,1344,-749,1149895855
1762339437.518932,5815,1149912109,0,1418,1433,-816,1149912109
1762339437.518932,5815,1149912109,1,1362,1554,-909,1149913309
1762339437.518932,5815,1149912109,2,1336,1598,-967,1149914509
1762339437.518932,5815,1149912109,3,1317,1700,-1038,1149915710
1762339437.518932,5815,1149912109,4,1312,1817,-1041,1149916910
1762339437.518932,5815,1149912109,5,1300,1858,-1017,1149918111
1762339437.518932,5815,1149912109,6,1323,1944,-973,1149919311
1762339437.518932,5815,1149912109,7,1338,1987,-909,1149920512
1762339437.518932,5815,1149912109,8,1351,1964,-812,1149921712
1762339437.518932,5815,1149912109,9,1394,1951,-651,1149922913
1762339437.518932,5815,1149912109,10,1454,1923,-538,1149924113
1762339437.518932,5815,1149912109,11,1471,1878,-480,1149925314
1762339437.518932,5815,1149912109,12,1508,1851,-345,1149926514
1762339437.518932,5815,1149912109,13,1575,1795,-217,1149927715
1762339437.518932,5815,1149912109,14,1651,1721,-168,1149928915
1762339437.518932,5815,1149912109,15,1679,1673,-28,1149930116
1762339437.518932,5815,1149912109,16,1626,1673,82,1149931316
1762339437.518932,5815,1149912109,17,1631,1624,114,1149932517
1762339437.518932,5815,1149912109,18,1638,1575,124,1149933717
1762339437.518932,5815,1149912109,19,1596,1294,122,1149934918
1762339437.519436,5816,1149951171,0,1538,1492,83,1149951171
1762339437.519436,5816,1149951171,1,1502,1426,36,1149952371
1762339437.519436,5816,1149951171,2,1449,1388,-73,1149953571
1762339437.519436,5816,1149951171,3,1447,1392,-154,1149954772
1762339437.519436,5816,1149951171,4,1418,1364,-154,1149955972
1762339437.519436,5816,1149951171,5,1402,1342,-145,1149957173
1762339437.519436,5816,1149951171,6,1404,1336,-111,1149958373
1762339437.519436,5816,1149951171,7,1399,1317,-126,1149959574
1762339437.519436,5816,1149951171,8,1402,1316,-140,1149960774
1762339437.519436,5816,1149951171,9,1365,1241,-156,1149961975
1762339437.519436,5816,1149951171,10,1296,1214,-188,1149963175
1762339437.519436,5816,1149951171,11,1201,1143,-489,1149964376
1762339437.519436,5816,1149951171,12,1170,1242,-339,1149965576
1762339437.519436,5816,1149951171,13,1157,1266,-353,1149966777
1762339437.519436,5816,1149951171,14,1125,1324,-334,1149967977
1762339437.519436,5816,1149951171,15,1027,1382,-311,1149969178
1762339437.519436,5816,1149951171,16,964,1493,-334,1149970378
1762339437.519436,5816,1149951171,17,881,1504,-286,1149971579
1762339437.519436,5816,1149951171,18,858,1568,-250,1149972779
1762339437.519436,5816,1149951171,19,830,1682,-206,1149973980
1762339437.547371,5817,1149990234,0,777,1734,-147,1149990234
1762339437.547371,5817,1149990234,1,671,1733,-28,1149991434
1762339437.547371,5817,1149990234,2,669,1791,34,1149992634
1762339437.547371,5817,1149990234,3,608,1589,143,1149993835
1762339437.547371,5817,1149990234,4,522,1836,218,1149995035
1762339437.547371,5817,1149990234,5,453,1777,273,1149996236
1762339437.547371,5817,1149990234,6,457,1661,440,1149997436
1762339437.547371,5817,1149990234,7,346,1559,569,1149998637
1762339437.547371,5817,1149990234,8,197,1520,708,1149999837
1762339437.547371,5817,1149990234,9,172,1393,406,1150001038
1762339437.547371,5817,1149990234,10,237,1374,915,1150002238
1762339437.547371,5817,1149990234,11,82,1352,1357,1150003439
1762339437.547371,5817,1149990234,12,-252,1461,1493,1150004639
1762339437.547371,5817,1149990234,13,-120,1367,1837,1150005840
1762339437.547371,5817,1149990234,14,-169,1308,2203,1150007040
1762339437.547371,5817,1149990234,15,-344,1194,2591,1150008241
1762339437.547371,5817,1149990234,16,-329,1327,2774,1150009441
1762339437.547371,5817,1149990234,17,-512,1354,3141,1150010642
1762339437.547371,5817,1149990234,18,-570,1611,3530,1150011842
1762339437.547371,5817,1149990234,19,-563,1708,3738,1150013043
1762339437.653876,5818,1150029296,0,-650,1856,4040,1150029296
1762339437.653876,5818,1150029296,1,-687,1972,4316,1150030496
1762339437.653876,5818,1150029296,2,-726,2080,4781,1150031696
1762339437.653876,5818,1150029296,3,-738,2187,4972,1150032897
1762339437.653876,5818,1150029296,4,-695,2263,5457,1150034097
1762339437.653876,5818,1150029296,5,-771,2159,6147,1150035298
1762339437.653876,5818,1150029296,6,-825,2128,6588,1150036498
1762339437.653876,5818,1150029296,7,-792,2181,7281,1150037699
1762339437.653876,5818,1150029296,8,-708,2228,7995,1150038899
1762339437.653876,5818,1150029296,9,-566,2326,8531,1150040100
1762339437.653876,5818,1150029296,10,-528,2424,8739,1150041300
1762339437.653876,5818,1150029296,11,-348,2545,8946,1150042501
1762339437.653876,5818,1150029296,12,-386,2672,10086,1150043701
1762339437.653876,5818,1150029296,13,-254,2983,10416,1150044902
1762339437.653876,5818,1150029296,14,-270,3338,11287,1150046102
1762339437.653876,5818,1150029296,15,-111,3525,11650,1150047303
1762339437.653876,5818,1150029296,16,187,3787,12178,1150048503
1762339437.653876,5818,1150029296,17,149,4022,12303,1150049704
1762339437.653876,5818,1150029296,18,216,4124,12652,1150050904
1762339437.653876,5818,1150029296,19,240,4398,12993,1150052105
1762339437.654335,5819,1150068359,0,247,4721,13108,1150068359
1762339437.654335,5819,1150068359,1,293,5112,13411,1150069559
1762339437.654335,5819,1150068359,2,283,5134,13615,1150070759
1762339437.654335,5819,1150068359,3,304,5347,13594,1150071960
1762339437.654335,5819,1150068359,4,377,5520,13629,1150073160
1762339437.654335,5819,1150068359,5,371,5586,13579,1150074361
1762339437.654335,5819,1150068359,6,287,5678,13416,1150075561
1762339437.654335,5819,1150068359,7,4,5728,13261,1150076762
1762339437.654335,5819,1150068359,8,84,5718,12855,1150077962
1762339437.654335,5819,1150068359,9,197,5564,12281,1150079163
1762339437.654335,5819,1150068359,10,170,5177,11913,1150080363
1762339437.654335,5819,1150068359,11,88,4743,11080,1150081564
1762339437.654335,5819,1150068359,12,-43,4558,10430,1150082764
1762339437.654335,5819,1150068359,13,-28,4401,10086,1150083965
1762339437.654335,5819,1150068359,14,-62,4154,9902,1150085165
1762339437.654335,5819,1150068359,15,-40,3992,9502,1150086366
1762339437.654335,5819,1150068359,16,-8,3669,9047,1150087566
1762339437.654335,5819,1150068359,17,-132,3363,8854,1150088767
1762339437.654335,5819,1150068359,18,-187,3282,8487,1150089967
1762339437.654335,5819,1150068359,19,-187,3261,8175,1150091168
1762339437.654621,5820,1150107421,0,-205,3221,7746,1150107421
1762339437.654621,5820,1150107421,1,-191,3256,7738,1150108621
1762339437.654621,5820,1150107421,2,-310,3260,7515,1150109821
1762339437.654621,5820,1150107421,3,-199,3310,7266,1150111022
1762339437.654621,5820,1150107421,4,-214,3292,7197,1150112222
1762339437.654621,5820,1150107421,5,-298,3335,6985,1150113423
1762339437.654621,5820,1150107421,6,-315,3368,6826,1150114623
1762339437.654621,5820,1150107421,7,-298,3425,6472,1150115824
1762339437.654621,5820,1150107421,8,-233,3440,6480,1150117024
1762339437.654621,5820,1150107421,9,-298,3440,6311,1150118225
1762339437.654621,5820,1150107421,10,-177,3453,6028,1150119425
1762339437.654621,5820,1150107421,11,-166,3395,5917,1150120626
1762339437.654621,5820,1150107421,12,-183,3304,5715,1150121826
1762339437.654621,5820,1150107421,13,-185,3261,5477,1150123027
1762339437.654621,5820,1150107421,14,-160,3082,5354,1150124227
1762339437.654621,5820,1150107421,15,-159,2864,5119,1150125428
1762339437.654621,5820,1150107421,16,-16,2783,4783,1150126628
1762339437.654621,5820,1150107421,17,-59,2636,4489,1150127829
1762339437.654621,5820,1150107421,18,-125,2438,4329,1150129029
1762339437.654621,5820,1150107421,19,-116,2118,4063,1150130230
1762339437.682490,5821,1150146484,0,-132,2192,3719,1150146484
1762339437.682490,5821,1150146484,1,-58,2040,3541,1150147684
1762339437.682490,5821,1150146484,2,-108,1872,3235,1150148884
1762339437.682490,5821,1150146484,3,-106,1762,2955,1150150085
1762339437.682490,5821,1150146484,4,-140,1627,2608,1150151285
1762339437.682490,5821,1150146484,5,-144,1476,2429,1150152486
1762339437.682490,5821,1150146484,6,-81,1416,2072,1150153686
1762339437.682490,5821,1150146484,7,-33,1243,1769,1150154887
1762339437.682490,5821,1150146484,8,-54,1084,1566,1150156087
1762339437.682490,5821,1150146484,9,-14,886,1207,1150157288
1762339437.682490,5821,1150146484,10,82,870,828,1150158488
1762339437.682490,5821,1150146484,11,91,721,469,1150159689
1762339437.682490,5821,1150146484,12,73,612,283,1150160889
1762339437.682490,5821,1150146484,13,232,602,-92,1150162090
1762339437.682490,5821,1150146484,14,312,484,-425,1150163290
1762339437.682490,5821,1150146484,15,317,504,-655,1150164491
1762339437.682490,5821,1150146484,16,463,419,-916,1150165691
1762339437.682490,5821,1150146484,17,504,412,-1242,1150166892
1762339437.682490,5821,1150146484,18,546,396,-1385,1150168092
1762339437.682490,5821,1150146484,19,621,424,-1639,1150169293
1762339437.778936,5822,1150185546,0,728,446,-1827,1150185546
1762339437.778936,5822,1150185546,1,800,493,-2038,1150186746
1762339437.778936,5822,1150185546,2,826,536,-2103,1150187946
1762339437.778936,5822,1150185546,3,941,508,-2242,1150189147
1762339437.778936,5822,1150185546,4,1018,495,-2358,1150190347
1762339437.778936,5822,1150185546,5,1032,539,-2425,1150191548
1762339437.778936,5822,1150185546,6,1081,649,-2560,1150192748
1762339437.778936,5822,1150185546,7,1114,681,-2709,1150193949
1762339437.778936,5822,1150185546,8,1202,770,-2814,1150195149
1762339437.778936,5822,1150185546,9,1211,890,-2882,1150196350
1762339437.778936,5822,1150185546,10,1197,1021,-2943,1150197550
1762339437.778936,5822,1150185546,11,1314,1061,-3043,1150198751
1762339437.778936,5822,1150185546,12,1329,1168,-3317,1150199951
1762339437.778936,5822,1150185546,13,1325,1293,-3139,1150201152
1762339437.778936,5822,1150185546,14,1359,1327,-3149,1150202352
1762339437.778936,5822,1150185546,15,1431,1430,-3182,1150203553
1762339437.778936,5822,1150185546,16,1437,1505,-3177,1150204753
1762339437.778936,5822,1150185546,17,1442,1787,-3133,1150205954
1762339437.778936,5822,1150185546,18,1461,1566,-3019,1150207154
1762339437.778936,5822,1150185546,19,1464,1664,-3035,1150208355
1762339437.779448,5823,1150224609,0,1484,1702,-2974,1150224609
1762339437.779448,5823,1150224609,1,1575,1724,-2903,1150225809
1762339437.779448,5823,1150224609,2,1767,1750,-2749,1150227009
1762339437.779448,5823,1150224609,3,1692,1744,-2558,1150228210
1762339437.779448,5823,1150224609,4,1596,1736,-2159,1150229410
1762339437.779448,5823,1150224609,5,1629,1760,-1850,1150230611
1762339437.779448,5823,1150224609,6,1644,1747,-1749,1150231811
1762339437.779448,5823,1150224609,7,1646,1721,-1608,1150233012
1762339437.779448,5823,1150224609,8,1593,1682,-1532,1150234212
1762339437.779448,5823,1150224609,9,1620,1622,-1540,1150235413
1762339437.779448,5823,1150224609,10,1611,1581,-1553,1150236613
1762339437.779448,5823,1150224609,11,1627,1553,-1541,1150237814
1762339437.779448,5823,1150224609,12,1577,1526,-1578,1150239014
1762339437.779448,5823,1150224609,13,1513,1555,-1637,1150240215
1762339437.779448,5823,1150224609,14,1448,1588,-1752,1150241415
1762339437.779448,5823,1150224609,15,1350,1640,-1907,1150242616
1762339437.779448,5823,1150224609,16,1255,1749,-2298,1150243816
1762339437.779448,5823,1150224609,17,1254,1875,-2264,1150245017
1762339437.779448,5823,1150224609,18,1222,1933,-2364,1150246217
1762339437.779448,5823,1150224609,19,1059,1975,-2343,1150247418
1762339437.817169,5824,1150263671,0,1046,2028,-2333,1150263671
1762339437.817169,5824,1150263671,1,1079,2055,-2187,1150264871
1762339437.817169,5824,1150263671,2,984,2022,-2058,1150266071
1762339437.817169,5824,1150263671,3,970,1957,-1976,1150267272
1762339437.817169,5824,1150263671,4,1017,1941,-1869,1150268472
1762339437.817169,5824,1150263671,5,1062,1886,-1661,1150269673
1762339437.817169,5824,1150263671,6,961,1705,-1474,1150270873
1762339437.817169,5824,1150263671,7,909,1395,-1446,1150272074
1762339437.817169,5824,1150263671,8,939,1161,-1351,1150273274
1762339437.817169,5824,1150263671,9,867,1037,-1158,1150274475
1762339437.817169,5824,1150263671,10,818,867,-787,1150275675
1762339437.817169,5824,1150263671,11,853,648,-785,1150276876
1762339437.817169,5824,1150263671,12,705,559,-532,1150278076
1762339437.817169,5824,1150263671,13,746,405,-304,1150279277
1762339437.817169,5824,1150263671,14,717,168,-53,1150280477
1762339437.817169,5824,1150263671,15,599,-226,-81,1150281678
1762339437.817169,5824,1150263671,16,566,-65,22,1150282878
1762339437.817169,5824,1150263671,17,491,-141,63,1150284079
1762339437.817169,5824,1150263671,18,483,-122,136,1150285279
1762339437.817169,5824,1150263671,19,393,-223,260,1150286480
1762339437.914355,5825,1150302734,0,257,-160,483,1150302734
1762339437.914355,5825,1150302734,1,127,-238,523,1150303934
1762339437.914355,5825,1150302734,2,50,-231,710,1150305134
1762339437.914355,5825,1150302734,3,-160,-153,953,1150306335
1762339437.914355,5825,1150302734,4,-504,-106,1033,1150307535
1762339437.914355,5825,1150302734,5,-347,-104,1297,1150308736
1762339437.914355,5825,1150302734,6,-457,-60,1440,1150309936
1762339437.914355,5825,1150302734,7,-520,-117,1774,1150311137
1762339437.914355,5825,1150302734,8,-685,-171,2065,1150312337
1762339437.914355,5825,1150302734,9,-790,-117,2519,1150313538
1762339437.914355,5825,1150302734,10,-988,47,3060,1150314738
1762339437.914355,5825,1150302734,11,-962,57,3269,1150315939
1762339437.914355,5825,1150302734,12,-927,215,3657,1150317139
1762339437.914355,5825,1150302734,13,-1074,221,4257,1150318340
1762339437.914355,5825,1150302734,14,-1163,331,4834,1150319540
1762339437.914355,5825,1150302734,15,-1171,514,5079,1150320741
1762339437.914355,5825,1150302734,16,-1258,627,5483,1150321941
1762339437.914355,5825,1150302734,17,-1292,800,5923,1150323142
1762339437.914355,5825,1150302734,18,-1307,1034,6028,1150324342
1762339437.914355,5825,1150302734,19,-1299,1264,6467,1150325543
1762339437.914810,5826,1150341796,0,-1302,1355,6918,1150341796
1762339437.914810,5826,1150341796,1,-1363,1638,7363,1150342996
1762339437.914810,5826,1150341796,2,-1284,1918,7470,1150344196
1762339437.914810,5826,1150341796,3,-1336,2047,8036,1150345397
1762339437.914810,5826,1150341796,4,-1260,2227,8527,1150346597
1762339437.914810,5826,1150341796,5,-1206,2471,8746,1150347798
1762339437.914810,5826,1150341796,6,-1123,2739,9108,1150348998
1762339437.914810,5826,1150341796,7,-1044,2885,9375,1150350199
1762339437.914810,5826,1150341796,8,-1022,3101,9365,1150351399
1762339437.914810,5826,1150341796,9,-941,3333,9346,1150352600
1762339437.914810,5826,1150341796,10,-1003,3421,10173,1150353800
1762339437.914810,5826,1150341796,11,-926,3889,11071,1150355001
1762339437.914810,5826,1150341796,12,-1008,4350,11427,1150356201
1762339437.914810,5826,1150341796,13,-940,4812,11976,1150357402
1762339437.914810,5826,1150341796,14,-826,5001,12527,1150358602
1762339437.914810,5826,1150341796,15,-522,5339,12706,1150359803
1762339437.914810,5826,1150341796,16,-657,5588,12934,1150361003
1762339437.914810,5826,1150341796,17,-690,5726,13179,1150362204
1762339437.914810,5826,1150341796,18,-737,5954,13448,1150363404
1762339437.914810,5826,1150341796,19,-757,6178,13567,1150364605
1762339437.915075,5827,1150380859,0,-721,6581,13847,1150380859
1762339437.915075,5827,1150380859,1,-692,6585,14248,1150382059
1762339437.915075,5827,1150380859,2,-963,6801,14400,1150383259
1762339437.915075,5827,1150380859,3,-1067,7021,14580,1150384460
1762339437.915075,5827,1150380859,4,-882,7073,14706,1150385660
1762339437.915075,5827,1150380859,5,-669,7217,14656,1150386861
1762339437.915075,5827,1150380859,6,-628,7269,14596,1150388061
1762339437.915075,5827,1150380859,7,-597,7307,14247,1150389262
1762339437.915075,5827,1150380859,8,-636,7320,13702,1150390462
1762339437.915075,5827,1150380859,9,-698,7211,13381,1150391663
1762339437.915075,5827,1150380859,10,-666,6946,12590,1150392863
1762339437.915075,5827,1150380859,11,-774,6652,11842,1150394064
1762339437.915075,5827,1150380859,12,-706,6214,11259,1150395264
1762339437.915075,5827,1150380859,13,-709,5796,11051,1150396465
1762339437.915075,5827,1150380859,14,-744,5639,10643,1150397665
1762339437.915075,5827,1150380859,15,-724,5287,10152,1150398866
1762339437.915075,5827,1150380859,16,-786,4820,9837,1150400066
1762339437.915075,5827,1150380859,17,-726,4460,9197,1150401267
1762339437.915075,5827,1150380859,18,-739,4355,8576,1150402467
1762339437.915075,5827,1150380859,19,-786,4071,8007,1150403668
1762339437.952219,5828,1150419921,0,-742,3859,7638,1150419921
1762339437.952219,5828,1150419921,1,-796,3733,7057,1150421121
1762339437.952219,5828,1150419921,2,-796,3611,6481,1150422321
1762339437.952219,5828,1150419921,3,-791,3496,5898,1150423522
1762339437.952219,5828,1150419921,4,-795,3322,5604,1150424722
1762339437.952219,5828,1150419921,5,-772,3206,5050,1150425923
1762339437.952219,5828,1150419921,6,-991,2994,4514,1150427123
1762339437.952219,5828,1150419921,7,-853,2783,4265,1150428324
1762339437.952219,5828,1150419921,8,-897,2634,3782,1150429524
1762339437.952219,5828,1150419921,9,-759,2458,3223,1150430725
1762339437.952219,5828,1150419921,10,-745,2270,3003,1150431925
1762339437.952219,5828,1150419921,11,-719,2200,2458,1150433126
1762339437.952219,5828,1150419921,12,-779,2113,2004,1150434326
1762339437.952219,5828,1150419921,13,-537,1996,1777,1150435527
1762339437.952219,5828,1150419921,14,-678,1947,1284,1150436727
1762339437.952219,5828,1150419921,15,-717,1882,857,1150437928
1762339437.952219,5828,1150419921,16,-664,1830,468,1150439128
1762339437.952219,5828,1150419921,17,-687,1796,334,1150440329
1762339437.952219,5828,1150419921,18,-623,1768,110,1150441529
1762339437.952219,5828,1150419921,19,-593,1753,-96,1150442730
1762339438.051116,5829,1150458984,0,-354,1710,-185,1150458984
1762339438.051116,5829,1150458984,1,-441,1734,-263,1150460184
1762339438.051116,5829,1150458984,2,-370,1709,-260,1150461384
1762339438.051116,5829,1150458984,3,-279,1695,-194,1150462585
1762339438.051116,5829,1150458984,4,-230,1571,-140,1150463785
1762339438.051116,5829,1150458984,5,-118,1512,-10,1150464986
1762339438.051116,5829,1150458984,6,13,1392,191,1150466186
1762339438.051116,5829,1150458984,7,27,1267,336,1150467387
1762339438.051116,5829,1150458984,8,129,1222,589,1150468587
1762339438.051116,5829,1150458984,9,215,1224,842,1150469788
1762339438.051116,5829,1150458984,10,332,1183,1003,1150470988
1762339438.051116,5829,1150458984,11,360,1234,1056,1150472189
1762339438.051116,5829,1150458984,12,431,1262,1126,1150473389
1762339438.051116,5829,1150458984,13,531,1363,1146,1150474590
1762339438.051116,5829,1150458984,14,511,1416,1156,1150475790
1762339438.051116,5829,1150458984,15,576,1500,1064,1150476991
1762339438.051116,5829,1150458984,16,663,1514,995,1150478191
1762339438.051116,5829,1150458984,17,704,1567,917,1150479392
1762339438.051116,5829,1150458984,18,741,1594,842,1150480592
1762339438.051116,5829,1150458984,19,725,1608,694,1150481793
1762339438.051661,5830,1150498046,0,842,1622,634,1150498046
1762339438.051661,5830,1150498046,1,837,1567,572,1150499246
1762339438.051661,5830,1150498046,2,828,1562,405,1150500446
1762339438.051661,5830,1150498046,3,882,1554,279,1150501647
1762339438.051661,5830,1150498046,4,859,1525,231,1150502847
1762339438.051661,5830,1150498046,5,951,1538,133,1150504048
1762339438.051661,5830,1150498046,6,901,1552,-15,1150505248
1762339438.051661,5830,1150498046,7,973,1625,-143,1150506449
1762339438.051661,5830,1150498046,8,1005,1610,-222,1150507649
1762339438.051661,5830,1150498046,9,1067,1622,-369,1150508850
1762339438.051661,5830,1150498046,10,1059,1611,-445,1150510050
1762339438.051661,5830,1150498046,11,1274,1561,-743,1150511251
1762339438.051661,5830,1150498046,12,1060,1526,-569,1150512451
1762339438.051661,5830,1150498046,13,1073,1580,-700,1150513652
1762339438.051661,5830,1150498046,14,1090,1591,-802,1150514852
1762339438.051661,5830,1150498046,15,1082,1561,-824,1150516053
1762339438.051661,5830,1150498046,16,1130,1548,-906,1150517253
1762339438.051661,5830,1150498046,17,1119,1536,-975,1150518454
1762339438.051661,5830,1150498046,18,1111,1514,-1017,1150519654
1762339438.051661,5830,1150498046,19,1156,1497,-1043,1150520855
1762339438.087170,5831,1150537109,0,1183,1473,-1060,1150537109
1762339438.087170,5831,1150537109,1,1210,1490,-1060,1150538309
1762339438.087170,5831,1150537109,2,1212,1494,-1051,1150539509
1762339438.087170,5831,1150537109,3,1207,1751,-1024,1150540710
1762339438.087170,5831,1150537109,4,1227,1561,-978,1150541910
1762339438.087170,5831,1150537109,5,1239,1657,-969,1150543111
1762339438.087170,5831,1150537109,6,1213,1722,-983,1150544311
1762339438.087170,5831,1150537109,7,1244,1730,-968,1150545512
1762339438.087170,5831,1150537109,8,1242,1797,-983,1150546712
1762339438.087170,5831,1150537109,9,1246,1900,-989,1150547913
1762339438.087170,5831,1150537109,10,1454,1950,-1025,1150549113
1762339438.087170,5831,1150537109,11,1364,2134,-972,1150550314
1762339438.087170,5831,1150537109,12,1262,2329,-898,1150551514
1762339438.087170,5831,1150537109,13,1263,2514,-907,1150552715
1762339438.087170,5831,1150537109,14,1216,2594,-892,1150553915
1762339438.087170,5831,1150537109,15,1111,2753,-898,1150555116
1762339438.087170,5831,1150537109,16,1056,2861,-936,1150556316
1762339438.087170,5831,1150537109,17,934,2904,-1048,1150557517
1762339438.087170,5831,1150537109,18,937,2977,-1227,1150558717
1762339438.087170,5831,1150537109,19,910,2998,-1279,1150559918
1762339438.191889,5832,1150576171,0,874,3022,-1408,1150576171
1762339438.191889,5832,1150576171,1,871,3011,-1551,1150577371
1762339438.191889,5832,1150576171,2,853,2960,-1588,1150578571
1762339438.191889,5832,1150576171,3,762,2850,-1613,1150579772
1762339438.191889,5832,1150576171,4,719,2848,-1668,1150580972
1762339438.191889,5832,1150576171,5,732,2701,-1685,1150582173
1762339438.191889,5832,1150576171,6,714,2514,-1628,1150583373
1762339438.191889,5832,1150576171,7,619,2409,-1603,1150584574
1762339438.191889,5832,1150576171,8,573,2332,-1491,1150585774
1762339438.191889,5832,1150576171,9,516,2125,-1427,1150586975
1762339438.191889,5832,1150576171,10,542,1955,-1282,1150588175
1762339438.191889,5832,1150576171,11,511,1933,-1144,1150589376
1762339438.191889,5832,1150576171,12,479,1832,-1075,1150590576
1762339438.191889,5832,1150576171,13,475,1804,-1018,1150591777
1762339438.191889,5832,1150576171,14,397,1735,-1019,1150592977
1762339438.191889,5832,1150576171,15,309,1619,-940,1150594178
1762339438.191889,5832,1150576171,16,251,1423,-951,1150595378
1762339438.191889,5832,1150576171,17,252,1313,-932,1150596579
1762339438.191889,5832,1150576171,18,161,1240,-708,1150597779
1762339438.191889,5832,1150576171,19,208,1163,-603,1150598980
1762339438.192320,5833,1150615234,0,120,1181,-485,1150615234
1762339438.192320,5833,1150615234,1,64,1521,-311,1150616434
1762339438.192320,5833,1150615234,2,-36,1363,-116,1150617634
1762339438.192320,5833,1150615234,3,-83,1411,-2,1150618835
1762339438.192320,5833,1150615234,4,-243,1494,183,1150620035
1762339438.192320,5833,1150615234,5,-289,1534,301,1150621236
1762339438.192320,5833,1150615234,6,-468,1617,453,1150622436
1762339438.192320,5833,1150615234,7,-528,1612,631,1150623637
1762339438.192320,5833,1150615234,8,-663,1590,906,1150624837
1762339438.192320,5833,1150615234,9,-763,1571,1275,1150626038
1762339438.192320,5833,1150615234,10,-782,1490,1589,1150627238
1762339438.192320,5833,1150615234,11,-892,1455,2164,1150628439
1762339438.192320,5833,1150615234,12,-1000,1442,2809,1150629639
1762339438.192320,5833,1150615234,13,-1160,1476,3577,1150630840
1762339438.192320,5833,1150615234,14,-1098,1548,3818,1150632040
1762339438.192320,5833,1150615234,15,-1106,1516,4546,1150633241
1762339438.192320,5833,1150615234,16,-1211,1514,5191,1150634441
1762339438.192320,5833,1150615234,17,-1233,1588,5517,1150635642
1762339438.192320,5833,1150615234,18,-1032,1699,6017,1150636842
1762339438.192320,5833,1150615234,19,-1112,1646,6556,1150638043
1762339438.192607,5834,1150654296,0,-1060,1844,7107,1150654296
1762339438.192607,5834,1150654296,1,-972,2027,7293,1150655496
1762339438.192607,5834,1150654296,2,-930,2158,7779,1150656696
1762339438.192607,5834,1150654296,3,-779,2355,8116,1150657897
1762339438.192607,5834,1150654296,4,-687,2645,8271,1150659097
1762339438.192607,5834,1150654296,5,-730,2785,8741,1150660298
1762339438.192607,5834,1150654296,6,-557,2946,8851,1150661498
1762339438.192607,5834,1150654296,7,-488,3224,9204,1150662699
1762339438.192607,5834,1150654296,8,-408,3463,9180,1150663899
1762339438.192607,5834,1150654296,9,-336,3641,9341,1150665100
1762339438.192607,5834,1150654296,10,-148,3928,9550,1150666300
1762339438.192607,5834,1150654296,11,-122,4251,9628,1150667501
1762339438.192607,5834,1150654296,12,-190,4601,9809,1150668701
1762339438.192607,5834,1150654296,13,-100,4639,9949,1150669902
1762339438.192607,5834,1150654296,14,-148,4811,10033,1150671102
1762339438.192607,5834,1150654296,15,-149,4997,10198,1150672303
1762339438.192607,5834,1150654296,16,-190,5068,10367,1150673503
1762339438.192607,5834,1150654296,17,-83,5225,10544,1150674704
1762339438.192607,5834,1150654296,18,-95,5299,10614,1150675904
1762339438.192607,5834,1150654296,19,-104,5326,10793,1150677105
1762339438.222531,5835,1150693359,0,-132,5381,10975,1150693359
1762339438.222531,5835,1150693359,1,-141,5385,11028,1150694559
1762339438.222531,5835,1150693359,2,-142,5380,11131,1150695759
1762339438.222531,5835,1150693359,3,-165,5350,11245,1150696960
1762339438.222531,5835,1150693359,4,-382,5322,11268,1150698160
1762339438.222531,5835,1150693359,5,-522,5290,11313,1150699361
1762339438.222531,5835,1150693359,6,-364,5226,11295,1150700561
1762339438.222531,5835,1150693359,7,-234,5152,11074,1150701762
1762339438.222531,5835,1150693359,8,-255,4920,10892,1150702962
1762339438.222531,5835,1150693359,9,-306,4844,10288,1150704163
1762339438.222531,5835,1150693359,10,-343,4750,9837,1150705363
1762339438.222531,5835,1150693359,11,-418,4678,9593,1150706564
1762339438.222531,5835,1150693359,12,-456,4549,9537,1150707764
1762339438.222531,5835,1150693359,13,-461,4518,9438,1150708965
1762339438.222531,5835,1150693359,14,-475,4325,9314,1150710165
1762339438.222531,5835,1150693359,15,-476,4157,9188,1150711366
1762339438.222531,5835,1150693359,16,-510,4009,8895,1150712566
1762339438.222531,5835,1150693359,17,-468,4007,8570,1150713767
1762339438.222531,5835,1150693359,18,-573,3990,8371,1150714967
1762339438.222531,5835,1150693359,19,-532,4135,8118,1150716168
1762339438.333831,5836,1150732421,0,-489,4130,7931,1150732421
1762339438.333831,5836,1150732421,1,-577,4239,7728,1150733621
1762339438.333831,5836,1150732421,2,-485,4352,7654,1150734821
1762339438.333831,5836,1150732421,3,-559,4383,7447,1150736022
1762339438.333831,5836,1150732421,4,-560,4352,7307,1150737222
1762339438.333831,5836,1150732421,5,-599,4396,7015,1150738423
1762339438.333831,5836,1150732421,6,-654,4464,7122,1150739623
1762339438.333831,5836,1150732421,7,-655,4470,7000,1150740824
1762339438.333831,5836,1150732421,8,-680,4548,6871,1150742024
1762339438.333831,5836,1150732421,9,-689,4602,6803,1150743225
1762339438.333831,5836,1150732421,10,-666,4540,6761,1150744425
1762339438.333831,5836,1150732421,11,-637,4489,6652,1150745626
1762339438.333831,5836,1150732421,12,-626,4425,6670,1150746826
1762339438.333831,5836,1150732421,13,-628,4320,6600,1150748027
1762339438.333831,5836,1150732421,14,-595,4271,6532,1150749227
1762339438.333831,5836,1150732421,15,-647,4112,6452,1150750428
1762339438.333831,5836,1150732421,16,-716,3915,6387,1150751628
1762339438.333831,5836,1150732421,17,-726,3821,6296,1150752829
1762339438.333831,5836,1150732421,18,-724,3559,6194,1150754029
1762339438.333831,5836,1150732421,19,-724,3331,6117,1150755230
1762339438.334325,5837,1150771484,0,-724,3107,5905,1150771484
1762339438.334325,5837,1150771484,1,-769,2965,5655,1150772684
1762339438.334325,5837,1150771484,2,-785,2836,5353,1150773884
1762339438.334325,5837,1150771484,3,-856,2653,5238,1150775085
1762339438.334325,5837,1150771484,4,-785,2352,4923,1150776285
1762339438.334325,5837,1150771484,5,-904,2367,4583,1150777486
1762339438.334325,5837,1150771484,6,-976,2208,4370,1150778686
1762339438.334325,5837,1150771484,7,-884,2043,4011,1150779887
1762339438.334325,5837,1150771484,8,-983,1924,3602,1150781087
1762339438.334325,5837,1150771484,9,-1024,1769,3124,1150782288
1762339438.334325,5837,1150771484,10,-959,1631,2989,1150783488
1762339438.334325,5837,1150771484,11,-1083,1568,2565,1150784689
1762339438.334325,5837,1150771484,12,-968,1437,2046,1150785889
1762339438.334325,5837,1150771484,13,-1022,1314,1856,1150787090
1762339438.334325,5837,1150771484,14,-1047,1276,1367,1150788290
1762339438.334325,5837,1150771484,15,-994,1287,849,1150789491
1762339438.334325,5837,1150771484,16,-992,1268,440,1150790691
1762339438.334325,5837,1150771484,17,-894,1302,184,1150791892
1762339438.334325,5837,1150771484,18,-765,1315,-215,1150793092
1762339438.334325,5837,1150771484,19,-802,1344,-553,1150794293
1762339438.358691,5838,1150810546,0,-774,1361,-742,1150810546
1762339438.358691,5838,1150810546,1,-617,1386,-1104,1150811746
1762339438.358691,5838,1150810546,2,-489,1399,-1438,1150812946
1762339438.358691,5838,1150810546,3,-261,1352,-1791,1150814147
1762339438.358691,5838,1150810546,4,-436,1343,-1890,1150815347
1762339438.358691,5838,1150810546,5,-310,1341,-2102,1150816548
1762339438.358691,5838,1150810546,6,-278,1305,-2245,1150817748
1762339438.358691,5838,1150810546,7,-87,1328,-2425,1150818949
1762339438.358691,5838,1150810546,8,-130,1335,-2666,1150820149
1762339438.358691,5838,1150810546,9,91,1393,-2894,1150821350
1762339438.358691,5838,1150810546,10,473,1515,-2972,1150822550
1762339438.358691,5838,1150810546,11,370,1671,-3125,1150823751
1762339438.358691,5838,1150810546,12,444,1688,-3301,1150824951
1762339438.358691,5838,1150810546,13,606,1790,-3442,1150826152
1762339438.358691,5838,1150810546,14,599,1813,-3516,1150827352
1762339438.358691,5838,1150810546,15,641,1874,-3625,1150828553
1762339438.358691,5838,1150810546,16,748,1840,-3754,1150829753
1762339438.358691,5838,1150810546,17,1018,1879,-3778,1150830954
1762339438.358691,5838,1150810546,18,817,1959,-3866,1150832154
1762339438.358691,5838,1150810546,19,815,1976,-3955,1150833355
1762339438.474841,5839,1150849609,0,899,1974,-4048,1150849609
1762339438.474841,5839,1150849609,1,909,1951,-4090,1150850809
1762339438.474841,5839,1150849609,2,853,1938,-4173,1150852009
1762339438.474841,5839,1150849609,3,924,1922,-4266,1150853210
1762339438.474841,5839,1150849609,4,949,1893,-4290,1150854410
1762339438.474841,5839,1150849609,5,988,1884,-4343,1150855611
1762339438.474841,5839,1150849609,6,1032,1867,-4321,1150856811
1762339438.474841,5839,1150849609,7,1078,1867,-4304,1150858012
1762339438.474841,5839,1150849609,8,1068,1890,-4271,1150859212
1762339438.474841,5839,1150849609,9,1193,1876,-4198,1150860413
1762339438.474841,5839,1150849609,10,1421,1896,-4059,1150861613
1762339438.474841,5839,1150849609,11,1343,1906,-3890,1150862814
1762339438.474841,5839,1150849609,12,1216,2060,-3635,1150864014
1762339438.474841,5839,1150849609,13,1132,2122,-3523,1150865215
1762339438.474841,5839,1150849609,14,1178,2179,-3527,1150866415
1762339438.474841,5839,1150849609,15,1239,2278,-3540,1150867616
1762339438.474841,5839,1150849609,16,1225,2331,-3456,1150868816
1762339438.474841,5839,1150849609,17,1252,2400,-3333,1150870017
1762339438.474841,5839,1150849609,18,1244,2412,-3269,1150871217
1762339438.474841,5839,1150849609,19,1261,2369,-3046,1150872418
1762339438.475331,5840,1150888671,0,1245,2398,-2871,1150888671
1762339438.475331,5840,1150888671,1,1024,2448,-2803,1150889871
1762339438.475331,5840,1150888671,2,1278,2462,-2742,1150891071
1762339438.475331,5840,1150888671,3,1252,2452,-2761,1150892272
1762339438.475331,5840,1150888671,4,1258,2423,-2825,1150893472
1762339438.475331,5840,1150888671,5,1336,2440,-2823,1150894673
1762339438.475331,5840,1150888671,6,1217,2395,-2814,1150895873
1762339438.475331,5840,1150888671,7,1143,2424,-2746,1150897074
1762339438.475331,5840,1150888671,8,1078,2310,-2403,1150898274
1762339438.475331,5840,1150888671,9,1050,2202,-2500,1150899475
1762339438.475331,5840,1150888671,10,1071,2126,-2273,1150900675
1762339438.475331,5840,1150888671,11,1086,2098,-2072,1150901876
1762339438.475331,5840,1150888671,12,992,1999,-1947,1150903076
1762339438.475331,5840,1150888671,13,965,1966,-1719,1150904277
1762339438.475331,5840,1150888671,14,973,1894,-1530,1150905477
1762339438.475331,5840,1150888671,15,1020,1723,-1443,1150906678
1762339438.475331,5840,1150888671,16,939,1567,-1236,1150907878
1762339438.475331,5840,1150888671,17,924,1506,-1084,1150909079
1762339438.475331,5840,1150888671,18,949,1383,-869,1150910279
1762339438.475331,5840,1150888671,19,960,1246,-788,1150911480
1762339438.492237,5841,1150927734,0,950,1157,-631,1150927734
1762339438.492237,5841,1150927734,1,941,1097,-543,1150928934
1762339438.492237,5841,1150927734,2,861,852,-491,1150930134
1762339438.492237,5841,1150927734,3,879,749,-397,1150931335
1762339438.492237,5841,1150927734,4,772,692,-280,1150932535
1762339438.492237,5841,1150927734,5,693,437,-70,1150933736
1762339438.492237,5841,1150927734,6,682,228,27,1150934936
1762339438.492237,5841,1150927734,7,478,153,319,1150936137
1762339438.492237,5841,1150927734,8,458,27,459,1150937337
1762339438.492237,5841,1150927734,9,374,88,478,1150938538
1762339438.492237,5841,1150927734,10,223,88,586,1150939738
1762339438.492237,5841,1150927734,11,106,165,632,1150940939
1762339438.492237,5841,1150927734,12,18,197,622,1150942139
1762339438.492237,5841,1150927734,13,-155,161,738,1150943340
1762339438.492237,5841,1150927734,14,-270,266,919,1150944540
1762339438.492237,5841,1150927734,15,-315,326,1031,1150945741
1762339438.492237,5841,1150927734,16,-418,212,1201,1150946941
1762339438.492237,5841,1150927734,17,-574,173,1520,1150948142
1762339438.492237,5841,1150927734,18,-641,215,1816,1150949342
1762339438.492237,5841,1150927734,19,-662,132,2061,1150950543
1762339438.493005,5842,1150966796,0,-723,229,2397,1150966796
1762339438.493005,5842,1150966796,1,-819,216,2815,1150967996
1762339438.493005,5842,1150966796,2,-884,421,3088,1150969196
1762339438.493005,5842,1150966796,3,-919,546,3307,1150970397
1762339438.493005,5842,1150966796,4,-992,923,3718,1150971597
1762339438.493005,5842,1150966796,5,-1166,881,4137,1150972798
1762339438.493005,5842,1150966796,6,-1451,1217,4562,1150973998
1762339438.493005,5842,1150966796,7,-1356,1574,4706,1150975199
1762339438.493005,5842,1150966796,8,-1480,1761,4975,1150976399
1762339438.493005,5842,1150966796,9,-1534,2170,5305,1150977600
1762339438.493005,5842,1150966796,10,-1554,2481,5592,1150978800
1762339438.493005,5842,1150966796,11,-1576,2901,5838,1150980001
1762339438.493005,5842,1150966796,12,-1532,3013,6182,1150981201
1762339438.493005,5842,1150966796,13,-1611,3208,6438,1150982402
1762339438.493005,5842,1150966796,14,-1536,3494,6835,1150983602
1762339438.493005,5842,1150966796,15,-1545,3457,7391,1150984803
1762339438.493005,5842,1150966796,16,-1515,3604,8013,1150986003
1762339438.493005,5842,1150966796,17,-1476,3858,8260,1150987204
1762339438.493005,5842,1150966796,18,-1380,3938,8729,1150988404
1762339438.493005,5842,1150966796,19,-1283,4112,9101,1150989605
1762339438.617248,5843,1151005859,0,-1230,4369,9347,1151005859
1762339438.617248,5843,1151005859,1,-1008,4651,9800,1151007059
1762339438.617248,5843,1151005859,2,-909,4818,10100,1151008259
1762339438.617248,5843,1151005859,3,-682,5251,10493,1151009460
1762339438.617248,5843,1151005859,4,-708,5568,10659,1151010660
1762339438.617248,5843,1151005859,5,-616,5754,10927,1151011861
1762339438.617248,5843,1151005859,6,-543,6066,11110,1151013061
1762339438.617248,5843,1151005859,7,-520,6339,11237,1151014262
1762339438.617248,5843,1151005859,8,-448,6521,11469,1151015462
1762339438.617248,5843,1151005859,9,-605,6568,11688,1151016663
1762339438.617248,5843,1151005859,10,-426,6847,11326,1151017863
1762339438.617248,5843,1151005859,11,-354,7144,11465,1151019064
1762339438.617248,5843,1151005859,12,-320,7253,11359,1151020264
1762339438.617248,5843,1151005859,13,-399,7452,11248,1151021465
1762339438.617248,5843,1151005859,14,-382,7632,11224,1151022665
1762339438.617248,5843,1151005859,15,-406,7696,11244,1151023866
1762339438.617248,5843,1151005859,16,-536,7692,11346,1151025066
1762339438.617248,5843,1151005859,17,-990,7747,11339,1151026267
1762339438.617248,5843,1151005859,18,-845,7760,11309,1151027467
1762339438.617248,5843,1151005859,19,-675,7717,11260,1151028668
1762339438.617767,5844,1151044921,0,-737,7557,11218,1151044921
1762339438.617767,5844,1151044921,1,-751,7350,11098,1151046121
1762339438.617767,5844,1151044921,2,-834,6922,10754,1151047321
1762339438.617767,5844,1151044921,3,-880,6903,10428,1151048522
1762339438.617767,5844,1151044921,4,-876,6559,10037,1151049722
1762339438.617767,5844,1151044921,5,-768,6303,10105,1151050923
1762339438.617767,5844,1151044921,6,-808,6227,9975,1151052123
1762339438.617767,5844,1151044921,7,-731,6010,9875,1151053324
1762339438.617767,5844,1151044921,8,-725,5726,9791,1151054524
1762339438.617767,5844,1151044921,9,-760,5236,9567,1151055725
1762339438.617767,5844,1151044921,10,-752,5222,9184,1151056925
1762339438.617767,5844,1151044921,11,-532,4960,8928,1151058126
1762339438.617767,5844,1151044921,12,-730,4847,8445,1151059326
1762339438.617767,5844,1151044921,13,-700,4774,7953,1151060527
1762339438.617767,5844,1151044921,14,-708,4792,7548,1151061727
1762339438.617767,5844,1151044921,15,-702,4717,7342,1151062928
1762339438.617767,5844,1151044921,16,-675,4398,6914,1151064128
1762339438.617767,5844,1151044921,17,-687,4511,6502,1151065329
1762339438.617767,5844,1151044921,18,-681,4330,6320,1151066529
1762339438.617767,5844,1151044921,19,-683,4132,5951,1151067730
1762339438.627316,5845,1151083984,0,-740,4063,5592,1151083984
1762339438.627316,5845,1151083984,1,-790,3965,5211,1151085184
1762339438.627316,5845,1151083984,2,-765,3863,5019,1151086384
1762339438.627316,5845,1151083984,3,-830,3813,4654,1151087585
1762339438.627316,5845,1151083984,4,-899,3757,4272,1151088785
1762339438.627316,5845,1151083984,5,-946,3781,4069,1151089986
1762339438.627316,5845,1151083984,6,-987,3832,3762,1151091186
1762339438.627316,5845,1151083984,7,-1052,3853,3419,1151092387
1762339438.627316,5845,1151083984,8,-1015,3916,3193,1151093587
1762339438.627316,5845,1151083984,9,-1028,3928,3057,1151094788
1762339438.627316,5845,1151083984,10,-989,3861,2912,1151095988
1762339438.627316,5845,1151083984,11,-1030,3777,2832,1151097189
1762339438.627316,5845,1151083984,12,-1016,3657,2822,1151098389
1762339438.627316,5845,1151083984,13,-953,3512,2796,1151099590
1762339438.627316,5845,1151083984,14,-922,3429,2873,1151100790
1762339438.627316,5845,1151083984,15,-874,3260,2895,1151101991
1762339438.627316,5845,1151083984,16,-824,3095,2946,1151103191
1762339438.627316,5845,1151083984,17,-765,2983,3008,1151104392
1762339438.627316,5845,1151083984,18,-741,2807,2979,1151105592
1762339438.627316,5845,1151083984,19,-662,2632,2963,1151106793
1762339438.761983,5846,1151123046,0,-634,2520,2850,1151123046
1762339438.761983,5846,1151123046,1,-578,2478,2680,1151124246
1762339438.761983,5846,1151123046,2,-552,2367,2337,1151125446
1762339438.761983,5846,1151123046,3,-480,2330,2332,1151126647
1762339438.761983,5846,1151123046,4,-502,2300,2045,1151127847
1762339438.761983,5846,1151123046,5,-401,2252,1684,1151129048
1762339438.761983,5846,1151123046,6,-344,2177,1474,1151130248
1762339438.761983,5846,1151123046,7,-337,2183,1148,1151131449
1762339438.761983,5846,1151123046,8,-351,2159,756,1151132649
1762339438.761983,5846,1151123046,9,-27,2109,506,1151133850
1762339438.761983,5846,1151123046,10,-180,2055,73,1151135050
1762339438.761983,5846,1151123046,11,-236,2052,-377,1151136251
1762339438.761983,5846,1151123046,12,-132,1977,-844,1151137451
1762339438.761983,5846,1151123046,13,-101,1913,-1059,1151138652
1762339438.761983,5846,1151123046,14,51,1865,-1489,1151139852
1762339438.761983,5846,1151123046,15,59,1814,-1900,1151141053
1762339438.761983,5846,1151123046,16,71,1727,-2088,1151142253
1762339438.761983,5846,1151123046,17,122,1620,-2458,1151143454
1762339438.761983,5846,1151123046,18,214,1582,-2872,1151144654
1762339438.761983,5846,1151123046,19,294,1518,-3145,1151145855
1762339438.762479,5847,1151162109,0,396,1471,-3321,1151162109
1762339438.762479,5847,1151162109,1,459,1447,-3601,1151163309
1762339438.762479,5847,1151162109,2,513,1346,-3820,1151164509
1762339438.762479,5847,1151162109,3,588,1231,-3907,1151165710
1762339438.762479,5847,1151162109,4,602,1130,-4061,1151166910
1762339438.762479,5847,1151162109,5,707,1100,-4191,1151168111
1762339438.762479,5847,1151162109,6,750,1055,-4239,1151169311
1762339438.762479,5847,1151162109,7,795,972,-4302,1151170512
1762339438.762479,5847,1151162109,8,845,946,-4298,1151171712
1762339438.762479,5847,1151162109,9,909,845,-4254,1151172913
1762339438.762479,5847,1151162109,10,928,774,-4238,1151174113
1762339438.762479,5847,1151162109,11,1044,744,-4179,1151175314
1762339438.762479,5847,1151162109,12,1061,720,-4084,1151176514
1762339438.762479,5847,1151162109,13,1145,733,-4030,1151177715
1762339438.762479,5847,1151162109,14,1151,770,-3969,1151178915
1762339438.762479,5847,1151162109,15,1199,786,-3891,1151180116
1762339438.762479,5847,1151162109,16,1372,858,-3821,1151181316
1762339438.762479,5847,1151162109,17,1545,909,-3749,1151182517
1762339438.762479,5847,1151162109,18,1446,1006,-3492,1151183717
1762339438.762479,5847,1151162109,19,1374,1103,-3202,1151184918
1762339438.762800,5848,1151201171,0,1375,1314,-2840,1151201171
1762339438.762800,5848,1151201171,1,1382,1518,-3010,1151202371
1762339438.762800,5848,1151201171,2,1414,1627,-3063,1151203571
1762339438.762800,5848,1151201171,3,1431,1863,-3154,1151204772
1762339438.762800,5848,1151201171,4,1415,1966,-3155,1151205972
1762339438.762800,5848,1151201171,5,1350,1989,-3168,1151207173
1762339438.762800,5848,1151201171,6,1337,2007,-3134,1151208373
1762339438.762800,5848,1151201171,7,1329,1955,-2818,1151209574
1762339438.762800,5848,1151201171,8,1351,1967,-2972,1151210774
1762339438.762800,5848,1151201171,9,1272,1924,-2921,1151211975
1762339438.762800,5848,1151201171,10,1259,1900,-3035,1151213175
1762339438.762800,5848,1151201171,11,1292,1817,-3137,1151214376
1762339438.762800,5848,1151201171,12,1156,1744,-3266,1151215576
1762339438.762800,5848,1151201171,13,1177,1696,-3381,1151216777
1762339438.762800,5848,1151201171,14,1091,1607,-3410,1151217977
1762339438.762800,5848,1151201171,15,1100,1545,-3328,1151219178
1762339438.762800,5848,1151201171,16,1033,1527,-3182,1151220378
1762339438.762800,5848,1151201171,17,1071,1545,-2989,1151221579
1762339438.762800,5848,1151201171,18,1029,1388,-2914,1151222779
1762339438.762800,5848,1151201171,19,953,1388,-2737,1151223980
1762339438.763075,5849,1151240234,0,912,1394,-2516,1151240234
1762339438.763075,5849,1151240234,1,911,1334,-2430,1151241434
1762339438.763075,5849,1151240234,2,825,1173,-2281,1151242634
1762339438.763075,5849,1151240234,3,688,1121,-2161,1151243835
1762339438.763075,5849,1151240234,4,860,1135,-2148,1151245035
1762339438.763075,5849,1151240234,5,791,1150,-2101,1151246236
1762339438.763075,5849,1151240234,6,650,971,-1853,1151247436
1762339438.763075,5849,1151240234,7,498,756,-1688,1151248637
1762339438.763075,5849,1151240234,8,485,618,-1575,1151249837
1762339438.763075,5849,1151240234,9,449,458,-1297,1151251038
1762339438.763075,5849,1151240234,10,310,460,-971,1151252238
1762339438.763075,5849,1151240234,11,265,328,-879,1151253439
1762339438.763075,5849,1151240234,12,292,263,-590,1151254639
1762339438.763075,5849,1151240234,13,142,153,-344,1151255840
1762339438.763075,5849,1151240234,14,20,57,-144,1151257040
1762339438.763075,5849,1151240234,15,71,181,-69,1151258241
1762339438.763075,5849,1151240234,16,-205,14,185,1151259441
1762339438.763075,5849,1151240234,17,-237,-57,380,1151260642
1762339438.763075,5849,1151240234,18,-282,-170,729,1151261842
1762339438.763075,5849,1151240234,19,-395,-220,779,1151263043
1762339438.807176,5850,1151279296,0,-337,-235,1158,1151279296
1762339438.807176,5850,1151279296,1,-553,-235,1668,1151280496
1762339438.807176,5850,1151279296,2,-618,-383,1802,1151281696
1762339438.807176,5850,1151279296,3,-684,-470,2236,1151282897
1762339438.807176,5850,1151279296,4,-883,-513,2704,1151284097
1762339438.807176,5850,1151279296,5,-876,-417,3128,1151285298
1762339438.807176,5850,1151279296,6,-1067,-382,3351,1151286498
1762339438.807176,5850,1151279296,7,-1052,-287,3627,1151287699
1762339438.807176,5850,1151279296,8,-1253,-6,3940,1151288899
1762339438.807176,5850,1151279296,9,-1304,295,4105,1151290100
1762339438.807176,5850,1151279296,10,-1334,544,4390,1151291300
1762339438.807176,5850,1151279296,11,-1651,930,4623,1151292501
1762339438.807176,5850,1151279296,12,-1672,1313,4684,1151293701
1762339438.807176,5850,1151279296,13,-1653,1711,4862,1151294902
1762339438.807176,5850,1151279296,14,-1749,1949,5035,1151296102
1762339438.807176,5850,1151279296,15,-1781,2345,5357,1151297303
1762339438.807176,5850,1151279296,16,-1908,2619,5624,1151298503
1762339438.807176,5850,1151279296,17,-2055,2838,5999,1151299704
1762339438.807176,5850,1151279296,18,-1973,3275,6420,1151300904
1762339438.807176,5850,1151279296,19,-1988,3516,6545,1151302105
1762339438.915044,5851,1151318359,0,-1932,3830,7220,1151318359
1762339438.915044,5851,1151318359,1,-2004,3862,7773,1151319559
1762339438.915044,5851,1151318359,2,-2092,4155,8375,1151320759
1762339438.915044,5851,1151318359,3,-2179,4436,8634,1151321960
1762339438.915044,5851,1151318359,4,-1942,4600,9122,1151323160
1762339438.915044,5851,1151318359,5,-1939,4870,9629,1151324361
1762339438.915044,5851,1151318359,6,-1804,5370,9807,1151325561
1762339438.915044,5851,1151318359,7,-1760,5839,10276,1151326762
1762339438.915044,5851,1151318359,8,-1694,6130,10796,1151327962
1762339438.915044,5851,1151318359,9,-1594,6630,11238,1151329163
1762339438.915044,5851,1151318359,10,-1555,7119,11354,1151330363
1762339438.915044,5851,1151318359,11,-1641,7425,11671,1151331564
1762339438.915044,5851,1151318359,12,-1471,8069,12231,1151332764
1762339438.915044,5851,1151318359,13,-2284,8341,12425,1151333965
1762339438.915044,5851,1151318359,14,-1372,8761,12715,1151335165
1762339438.915044,5851,1151318359,15,-824,8970,12900,1151336366
1762339438.915044,5851,1151318359,16,-796,9338,13267,1151337566
1762339438.915044,5851,1151318359,17,-897,9701,13199,1151338767
1762339438.915044,5851,1151318359,18,-918,9843,13444,1151339967
1762339438.915044,5851,1151318359,19,-787,10070,13715,1151341168
1762339438.915542,5852,1151357421,0,-893,10298,13741,1151357421
1762339438.915542,5852,1151357421,1,-1150,10413,13960,1151358621
1762339438.915542,5852,1151357421,2,-1238,10425,13810,1151359821
1762339438.915542,5852,1151357421,3,-836,10520,13649,1151361022
1762339438.915542,5852,1151357421,4,-911,10403,13393,1151362222
1762339438.915542,5852,1151357421,5,-933,10268,12915,1151363423
1762339438.915542,5852,1151357421,6,-1007,9983,11920,1151364623
1762339438.915542,5852,1151357421,7,-1047,9381,11469,1151365824
1762339438.915542,5852,1151357421,8,-1059,8820,10723,1151367024
1762339438.915542,5852,1151357421,9,-1115,8490,10222,1151368225
1762339438.915542,5852,1151357421,10,-1154,8006,10030,1151369425
1762339438.915542,5852,1151357421,11,-1100,7535,9722,1151370626
1762339438.915542,5852,1151357421,12,-1175,7283,9368,1151371826
1762339438.915542,5852,1151357421,13,-1239,6781,9006,1151373027
1762339438.915542,5852,1151357421,14,-1349,6389,8792,1151374227
1762339438.915542,5852,1151357421,15,-1384,6304,8347,1151375428
1762339438.915542,5852,1151357421,16,-1463,6135,7858,1151376628
1762339438.915542,5852,1151357421,17,-1461,5960,7595,1151377829
1762339438.915542,5852,1151357421,18,-1483,5739,7093,1151379029
1762339438.915542,5852,1151357421,19,-1623,5589,6641,1151380230
1762339438.942243,5853,1151396484,0,-1583,5302,6176,1151396484
1762339438.942243,5853,1151396484,1,-1608,4984,6032,1151397684
1762339438.942243,5853,1151396484,2,-1643,4839,5675,1151398884
1762339438.942243,5853,1151396484,3,-1623,4553,5273,1151400085
1762339438.942243,5853,1151396484,4,-1670,4256,5078,1151401285
1762339438.942243,5853,1151396484,5,-1541,4023,4681,1151402486
1762339438.942243,5853,1151396484,6,-1579,3926,4338,1151403686
1762339438.942243,5853,1151396484,7,-1598,3743,3895,1151404887
1762339438.942243,5853,1151396484,8,-1609,3607,3789,1151406087
1762339438.942243,5853,1151396484,9,-1562,3518,3466,1151407288
1762339438.942243,5853,1151396484,10,-1519,3399,3116,1151408488
1762339438.942243,5853,1151396484,11,-1497,3301,3017,1151409689
1762339438.942243,5853,1151396484,12,-1442,3238,2726,1151410889
1762339438.942243,5853,1151396484,13,-1380,3216,2420,1151412090
1762339438.942243,5853,1151396484,14,-1293,3124,2299,1151413290
1762339438.942243,5853,1151396484,15,-1270,3009,2047,1151414491
1762339438.942243,5853,1151396484,16,-1215,3012,1804,1151415691
1762339438.942243,5853,1151396484,17,-1121,2872,1574,1151416892
1762339438.942243,5853,1151396484,18,-989,2719,1456,1151418092
1762339438.942243,5853,1151396484,19,-983,2403,1256,1151419293
1762339439.073666,5854,1151435546,0,-927,2474,1092,1151435546
1762339439.073666,5854,1151435546,1,-880,2296,970,1151436746
1762339439.073666,5854,1151435546,2,-866,2072,768,1151437946
1762339439.073666,5854,1151435546,3,-789,2035,491,1151439147
1762339439.073666,5854,1151435546,4,-660,1840,338,1151440347
1762339439.073666,5854,1151435546,5,-710,1620,207,1151441548
1762339439.073666,5854,1151435546,6,-611,1326,-56,1151442748
1762339439.073666,5854,1151435546,7,-533,1368,-313,1151443949
1762339439.073666,5854,1151435546,8,-499,1221,-463,1151445149
1762339439.073666,5854,1151435546,9,-407,1086,-838,1151446350
1762339439.073666,5854,1151435546,10,-270,1010,-1131,1151447550
1762339439.073666,5854,1151435546,11,-255,920,-1479,1151448751
1762339439.073666,5854,1151435546,12,-258,789,-1642,1151449951
1762339439.073666,5854,1151435546,13,-106,767,-2007,1151451152
1762339439.073666,5854,1151435546,14,3,678,-2362,1151452352
1762339439.073666,5854,1151435546,15,65,562,-2507,1151453553
1762339439.073666,5854,1151435546,16,107,517,-2848,1151454753
1762339439.073666,5854,1151435546,17,169,476,-3186,1151455954
1762339439.073666,5854,1151435546,18,325,444,-3570,1151457154
1762339439.073666,5854,1151435546,19,302,411,-3610,1151458355
1762339439.074189,5855,1151474609,0,401,312,-3835,1151474609
1762339439.074189,5855,1151474609,1,591,268,-4024,1151475809
1762339439.074189,5855,1151474609,2,657,214,-4111,1151477009
1762339439.074189,5855,1151474609,3,628,102,-4261,1151478210
1762339439.074189,5855,1151474609,4,693,105,-4421,1151479410
1762339439.074189,5855,1151474609,5,1016,11,-4482,1151480611
1762339439.074189,5855,1151474609,6,855,-21,-4543,1151481811
1762339439.074189,5855,1151474609,7,933,-17,-4594,1151483012
1762339439.074189,5855,1151474609,8,962,-13,-4605,1151484212
1762339439.074189,5855,1151474609,9,958,53,-4627,1151485413
1762339439.074189,5855,1151474609,10,1031,158,-4691,1151486613
1762339439.074189,5855,1151474609,11,1117,202,-4688,1151487814
1762339439.074189,5855,1151474609,12,1119,311,-4665,1151489014
1762339439.074189,5855,1151474609,13,1161,413,-4609,1151490215
1762339439.074189,5855,1151474609,14,1279,455,-4464,1151491415
1762339439.074189,5855,1151474609,15,1525,549,-4132,1151492616
1762339439.074189,5855,1151474609,16,1426,654,-3898,1151493816
1762339439.074189,5855,1151474609,17,1381,987,-3474,1151495017
1762339439.074189,5855,1151474609,18,1414,931,-3213,1151496217
1762339439.074189,5855,1151474609,19,1435,1049,-3102,1151497418
1762339439.075926,5856,1151513671,0,1469,1185,-3037,1151513671
1762339439.075926,5856,1151513671,1,1528,1244,-2995,1151514871
1762339439.075926,5856,1151513671,2,1425,1287,-2927,1151516071
1762339439.075926,5856,1151513671,3,1399,1246,-2925,1151517272
1762339439.075926,5856,1151513671,4,1279,1249,-2898,1151518472
1762339439.075926,5856,1151513671,5,1337,1206,-2962,1151519673
1762339439.075926,5856,1151513671,6,1279,1235,-2959,1151520873
1762339439.075926,5856,1151513671,7,1258,1319,-2990,1151522074
1762339439.075926,5856,1151513671,8,1132,1274,-3009,1151523274
1762339439.075926,5856,1151513671,9,1092,1304,-3090,1151524475
1762339439.075926,5856,1151513671,10,1098,1315,-3143,1151525675
1762339439.075926,5856,1151513671,11,1058,1356,-3176,1151526876
1762339439.075926,5856,1151513671,12,1042,1389,-3127,1151528076
1762339439.075926,5856,1151513671,13,1007,1302,-3034,1151529277
1762339439.075926,5856,1151513671,14,1018,1319,-2853,1151530477
1762339439.075926,5856,1151513671,15,1012,1323,-2707,1151531678
1762339439.075926,5856,1151513671,16,982,1213,-2308,1151532878
1762339439.075926,5856,1151513671,17,979,1129,-2287,1151534079
1762339439.075926,5856,1151513671,18,877,1074,-1993,1151535279
1762339439.075926,5856,1151513671,19,958,928,-1783,1151536480
1762339439.077842,5857,1151552734,0,961,868,-1659,1151552734
1762339439.077842,5857,1151552734,1,894,683,-1420,1151553934
1762339439.077842,5857,1151552734,2,750,522,-1042,1151555134
1762339439.077842,5857,1151552734,3,711,223,-944,1151556335
1762339439.077842,5857,1151552734,4,625,37,-723,1151557535
1762339439.077842,5857,1151552734,5,555,77,-595,1151558736
1762339439.077842,5857,1151552734,6,571,9,-533,1151559936
1762339439.077842,5857,1151552734,7,393,-241,-525,1151561137
1762339439.077842,5857,1151552734,8,440,-328,-424,1151562337
1762339439.077842,5857,1151552734,9,336,-373,-205,1151563538
1762339439.077842,5857,1151552734,10,233,-536,176,1151564738
1762339439.077842,5857,1151552734,11,103,-413,21,1151565939
1762339439.077842,5857,1151552734,12,70,-248,287,1151567139
1762339439.077842,5857,1151552734,13,-67,-148,405,1151568340
1762339439.077842,5857,1151552734,14,-90,-71,535,1151569540
1762339439.077842,5857,1151552734,15,-217,228,714,1151570741
1762339439.077842,5857,1151552734,16,-309,43,829,1151571941
1762339439.077842,5857,1151552734,17,-366,166,975,1151573142
1762339439.077842,5857,1151552734,18,-533,325,1170,1151574342
1762339439.077842,5857,1151552734,19,-737,399,1372,1151575543
1762339439.122391,5858,1151591796,0,-882,543,1537,1151591796
1762339439.122391,5858,1151591796,1,-790,628,1655,1151592996
1762339439.122391,5858,1151591796,2,-1166,562,2050,1151594196
1762339439.122391,5858,1151591796,3,-1181,730,2407,1151595397
1762339439.122391,5858,1151591796,4,-1440,883,2588,1151596597
1762339439.122391,5858,1151591796,5,-1352,973,3085,1151597798
1762339439.122391,5858,1151591796,6,-1459,1114,3402,1151598998
1762339439.122391,5858,1151591796,7,-1591,1358,3932,1151600199
1762339439.122391,5858,1151591796,8,-1569,1584,4242,1151601399
1762339439.122391,5858,1151591796,9,-1682,1536,4656,1151602600
1762339439.122391,5858,1151591796,10,-1795,1895,5194,1151603800
1762339439.122391,5858,1151591796,11,-1980,1991,5449,1151605001
1762339439.122391,5858,1151591796,12,-1905,2494,5824,1151606201
1762339439.122391,5858,1151591796,13,-2106,2624,6146,1151607402
1762339439.122391,5858,1151591796,14,-2172,3123,6657,1151608602
1762339439.122391,5858,1151591796,15,-2216,3586,6782,1151609803
1762339439.122391,5858,1151591796,16,-2257,3790,7175,1151611003
1762339439.122391,5858,1151591796,17,-2237,4238,7509,1151612204
1762339439.122391,5858,1151591796,18,-2241,4688,7632,1151613404
1762339439.122391,5858,1151591796,19,-2314,5032,7891,1151614605
1762339439.222311,5859,1151630859,0,-2234,5285,8272,1151630859
1762339439.222311,5859,1151630859,1,-2318,5689,8774,1151632059
1762339439.222311,5859,1151630859,2,-2326,6120,9004,1151633259
1762339439.222311,5859,1151630859,3,-2310,6455,9438,1151634460
1762339439.222311,5859,1151630859,4,-2156,6992,9987,1151635660
1762339439.222311,5859,1151630859,5,-2218,7530,10563,1151636861
1762339439.222311,5859,1151630859,6,-2152,8183,10784,1151638061
1762339439.222311,5859,1151630859,7,-2108,8477,11340,1151639262
1762339439.222311,5859,1151630859,8,-1804,9055,11881,1151640462
1762339439.222311,5859,1151630859,9,-1960,9553,12157,1151641663
1762339439.222311,5859,1151630859,10,-1892,9792,12681,1151642863
1762339439.222311,5859,1151630859,11,-1756,10259,13139,1151644064
1762339439.222311,5859,1151630859,12,-1692,10665,13355,1151645264
1762339439.222311,5859,1151630859,13,-1468,10819,13737,1151646465
1762339439.222311,5859,1151630859,14,-1354,11079,14071,1151647665
1762339439.222311,5859,1151630859,15,-1419,11333,14218,1151648866
1762339439.222311,5859,1151630859,16,-1452,11431,14588,1151650066
1762339439.222311,5859,1151630859,17,-1315,11485,14686,1151651267
1762339439.222311,5859,1151630859,18,-1053,11548,14582,1151652467
1762339439.222311,5859,1151630859,19,-976,11493,14491,1151653668
1762339439.222856,5860,1151669921,0,-955,11083,13996,1151669921
1762339439.222856,5860,1151669921,1,-1034,10967,12941,1151671121
1762339439.222856,5860,1151669921,2,-997,10321,12302,1151672321
1762339439.222856,5860,1151669921,3,-940,9614,11136,1151673522
1762339439.222856,5860,1151669921,4,-995,9220,10285,1151674722
1762339439.222856,5860,1151669921,5,-1014,8610,9718,1151675923
1762339439.222856,5860,1151669921,6,-1019,7847,9529,1151677123
1762339439.222856,5860,1151669921,7,-1129,6959,9267,1151678324
1762339439.222856,5860,1151669921,8,-1297,6677,9030,1151679524
1762339439.222856,5860,1151669921,9,-1360,6064,8893,1151680725
1762339439.222856,5860,1151669921,10,-1449,5694,8481,1151681925
1762339439.222856,5860,1151669921,11,-1596,5519,8101,1151683126
1762339439.222856,5860,1151669921,12,-1747,5225,7914,1151684326
1762339439.222856,5860,1151669921,13,-1763,4977,7451,1151685527
1762339439.222856,5860,1151669921,14,-1842,4894,6999,1151686727
1762339439.222856,5860,1151669921,15,-1883,4583,6475,1151687928
1762339439.222856,5860,1151669921,16,-1894,4352,6198,1151689128
1762339439.222856,5860,1151669921,17,-1944,4138,5668,1151690329
1762339439.222856,5860,1151669921,18,-1944,3981,5189,1151691529
1762339439.222856,5860,1151669921,19,-1960,3793,4688,1151692730
1762339439.257259,5861,1151708984,0,-1990,3602,4423,1151708984
1762339439.257259,5861,1151708984,1,-1933,3527,3962,1151710184
1762339439.257259,5861,1151708984,2,-1853,3361,3577,1151711384
1762339439.257259,5861,1151708984,3,-1808,3219,3384,1151712585
1762339439.257259,5861,1151708984,4,-1788,3106,3047,1151713785
1762339439.257259,5861,1151708984,5,-1717,3075,2694,1151714986
1762339439.257259,5861,1151708984,6,-1620,2985,2313,1151716186
1762339439.257259,5861,1151708984,7,-1573,2925,2285,1151717387
1762339439.257259,5861,1151708984,8,-1508,2868,1984,1151718587
1762339439.257259,5861,1151708984,9,-1407,2823,1746,1151719788
1762339439.257259,5861,1151708984,10,-1394,2790,1613,1151720988
1762339439.257259,5861,1151708984,11,-1314,2766,1353,1151722189
1762339439.257259,5861,1151708984,12,-1317,2734,1068,1151723389
1762339439.257259,5861,1151708984,13,-1066,2722,902,1151724590
1762339439.257259,5861,1151708984,14,-1154,2705,622,1151725790
1762339439.257259,5861,1151708984,15,-1164,2626,340,1151726991
1762339439.257259,5861,1151708984,16,-1078,2507,37,1151728191
1762339439.257259,5861,1151708984,17,-1098,2362,-68,1151729392
1762339439.257259,5861,1151708984,18,-1012,2287,-402,1151730592
1762339439.257259,5861,1151708984,19,-955,2148,-626,1151731793
1762339439.377562,5862,1151748046,0,-951,1945,-788,1151748046
1762339439.377562,5862,1151748046,1,-855,1836,-1067,1151749246
1762339439.377562,5862,1151748046,2,-834,1737,-1431,1151750446
1762339439.377562,5862,1151748046,3,-690,1642,-1712,1151751647
1762339439.377562,5862,1151748046,4,-716,1556,-1852,1151752847
1762339439.377562,5862,1151748046,5,-686,1510,-2199,1151754048
1762339439.377562,5862,1151748046,6,-516,1480,-2545,1151755248
1762339439.377562,5862,1151748046,7,-501,1428,-2712,1151756449
1762339439.377562,5862,1151748046,8,-483,1335,-3000,1151757649
1762339439.377562,5862,1151748046,9,-321,1293,-3302,1151758850
1762339439.377562,5862,1151748046,10,-225,1214,-3438,1151760050
1762339439.377562,5862,1151748046,11,-161,1184,-3672,1151761251
1762339439.377562,5862,1151748046,12,-188,1173,-3875,1151762451
1762339439.377562,5862,1151748046,13,-29,1132,-4058,1151763652
1762339439.377562,5862,1151748046,14,0,1087,-4151,1151764852
1762339439.377562,5862,1151748046,15,85,1051,-4275,1151766053
1762339439.377562,5862,1151748046,16,176,996,-4349,1151767253
1762339439.377562,5862,1151748046,17,285,963,-4103,1151768454
1762339439.377562,5862,1151748046,18,295,911,-4345,1151769654
1762339439.377562,5862,1151748046,19,472,904,-4374,1151770855
1762339439.378137,5863,1151787109,0,558,926,-4356,1151787109
1762339439.378137,5863,1151787109,1,574,918,-4316,1151788309
1762339439.378137,5863,1151787109,2,691,935,-4286,1151789509
1762339439.378137,5863,1151787109,3,768,928,-4186,1151790710
1762339439.378137,5863,1151787109,4,775,956,-3877,1151791910
1762339439.378137,5863,1151787109,5,829,1009,-3970,1151793111
1762339439.378137,5863,1151787109,6,882,1064,-3826,1151794311
1762339439.378137,5863,1151787109,7,1021,1152,-3717,1151795512
1762339439.378137,5863,1151787109,8,1283,1214,-3583,1151796712
1762339439.378137,5863,1151787109,9,1167,1240,-3246,1151797913
1762339439.378137,5863,1151787109,10,1073,1348,-2874,1151799113
1762339439.378137,5863,1151787109,11,1093,1494,-2766,1151800314
1762339439.378137,5863,1151787109,12,1086,1535,-2537,1151801514
1762339439.378137,5863,1151787109,13,1169,1527,-2412,1151802715
1762339439.378137,5863,1151787109,14,1211,1528,-2271,1151803915
1762339439.378137,5863,1151787109,15,1218,1411,-2175,1151805116
1762339439.378137,5863,1151787109,16,1231,1365,-2084,1151806316
1762339439.378137,5863,1151787109,17,1241,1260,-2045,1151807517
1762339439.378137,5863,1151787109,18,1197,1181,-2018,1151808717
1762339439.378137,5863,1151787109,19,1190,1147,-2126,1151809918
1762339439.378555,5864,1151826171,0,1029,1148,-2265,1151826171
1762339439.378555,5864,1151826171,1,922,1091,-2497,1151827371
1762339439.378555,5864,1151826171,2,914,1052,-2588,1151828571
1762339439.378555,5864,1151826171,3,867,1016,-2663,1151829772
1762339439.378555,5864,1151826171,4,854,984,-2689,1151830972
1762339439.378555,5864,1151826171,5,804,1019,-2669,1151832173
1762339439.378555,5864,1151826171,6,880,1148,-2645,1151833373
1762339439.378555,5864,1151826171,7,847,1129,-2474,1151834574
1762339439.378555,5864,1151826171,8,799,1201,-2386,1151835774
1762339439.378555,5864,1151826171,9,785,1206,-2259,1151836975
1762339439.378555,5864,1151826171,10,748,1175,-1996,1151838175
1762339439.378555,5864,1151826171,11,804,1044,-1870,1151839376
1762339439.378555,5864,1151826171,12,822,1111,-1874,1151840576
1762339439.378555,5864,1151826171,13,802,1140,-1721,1151841777
1762339439.378555,5864,1151826171,14,660,1094,-1477,1151842977
1762339439.378555,5864,1151826171,15,675,884,-1129,1151844178
1762339439.378555,5864,1151826171,16,577,706,-1215,1151845378
1762339439.378555,5864,1151826171,17,533,580,-1003,1151846579
1762339439.378555,5864,1151826171,18,464,567,-815,1151847779
1762339439.378555,5864,1151826171,19,404,454,-759,1151848980
1762339439.392624,5865,1151865234,0,269,289,-581,1151865234
1762339439.392624,5865,1151865234,1,341,283,-576,1151866434
1762339439.392624,5865,1151865234,2,247,105,-454,1151867634
1762339439.392624,5865,1151865234,3,168,189,-420,1151868835
1762339439.392624,5865,1151865234,4,109,151,-304,1151870035
1762339439.392624,5865,1151865234,5,43,196,-122,1151871236
1762339439.392624,5865,1151865234,6,-28,291,-12,1151872436
1762339439.392624,5865,1151865234,7,-193,267,184,1151873637
1762339439.392624,5865,1151865234,8,-285,403,277,1151874837
1762339439.392624,5865,1151865234,9,-281,494,396,1151876038
1762339439.392624,5865,1151865234,10,-611,512,590,1151877238
1762339439.392624,5865,1151865234,11,-500,639,759,1151878439
1762339439.392624,5865,1151865234,12,-873,737,1009,1151879639
1762339439.392624,5865,1151865234,13,-858,927,1106,1151880840
1762339439.392624,5865,1151865234,14,-951,837,1329,1151882040
1762339439.392624,5865,1151865234,15,-1136,947,1683,1151883241
1762339439.392624,5865,1151865234,16,-1234,1103,1858,1151884441
1762339439.392624,5865,1151865234,17,-1304,1201,2236,1151885642
1762339439.392624,5865,1151865234,18,-1481,1296,2480,1151886842
1762339439.392624,5865,1151865234,19,-1696,1497,2764,1151888043
1762339439.537544,5866,1151904296,0,-1650,1739,2917,1151904296
1762339439.537544,5866,1151904296,1,-2071,1650,3285,1151905496
1762339439.537544,5866,1151904296,2,-1987,1955,3663,1151906696
1762339439.537544,5866,1151904296,3,-2117,2223,3906,1151907897
1762339439.537544,5866,1151904296,4,-2335,2521,4238,1151909097
1762339439.537544,5866,1151904296,5,-2383,2675,4640,1151910298
1762339439.537544,5866,1151904296,6,-2497,3025,5102,1151911498
1762339439.537544,5866,1151904296,7,-2537,3373,5295,1151912699
1762339439.537544,5866,1151904296,8,-2504,3571,5920,1151913899
1762339439.537544,5866,1151904296,9,-2526,3922,6500,1151915100
1762339439.537544,5866,1151904296,10,-2476,4251,6790,1151916300
1762339439.537544,5866,1151904296,11,-2502,4572,7442,1151917501
1762339439.537544,5866,1151904296,12,-2422,4762,8019,1151918701
1762339439.537544,5866,1151904296,13,-2402,5057,8544,1151919902
1762339439.537544,5866,1151904296,14,-2414,5375,8802,1151921102
1762339439.537544,5866,1151904296,15,-2328,5590,9348,1151922303
1762339439.537544,5866,1151904296,16,-2253,6116,9844,1151923503
1762339439.537544,5866,1151904296,17,-2221,6704,10009,1151924704
1762339439.537544,5866,1151904296,18,-2122,7443,10321,1151925904
1762339439.537544,5866,1151904296,19,-2105,7787,10702,1151927105
1762339439.538282,5867,1151943359,0,-1806,8474,10810,1151943359
1762339439.538282,5867,1151943359,1,-1937,9147,11068,1151944559
1762339439.538282,5867,1151943359,2,-1938,9498,11380,1151945759
1762339439.538282,5867,1151943359,3,-1835,10061,11698,1151946960
1762339439.538282,5867,1151943359,4,-1740,10592,11767,1151948160
1762339439.538282,5867,1151943359,5,-1655,11057,12038,1151949361
1762339439.538282,5867,1151943359,6,-1666,11195,12312,1151950561
1762339439.538282,5867,1151943359,7,-1653,11469,12388,1151951762
1762339439.538282,5867,1151943359,8,-1498,11677,12630,1151952962
1762339439.538282,5867,1151943359,9,-1494,11705,12853,1151954163
1762339439.538282,5867,1151943359,10,-1581,11740,13060,1151955363
1762339439.538282,5867,1151943359,11,-1612,11690,13160,1151956564
1762339439.538282,5867,1151943359,12,-1350,11332,13445,1151957764
1762339439.538282,5867,1151943359,13,-1160,11247,13693,1151958965
1762339439.538282,5867,1151943359,14,-1130,10698,13787,1151960165
1762339439.538282,5867,1151943359,15,-1165,10113,13622,1151961366
1762339439.538282,5867,1151943359,16,-1215,9767,13182,1151962566
1762339439.538282,5867,1151943359,17,-1189,8821,12458,1151963767
1762339439.538282,5867,1151943359,18,-1203,8089,12093,1151964967
1762339439.538282,5867,1151943359,19,-1157,7544,11538,1151966168
1762339439.538798,5868,1151982421,0,-1244,7211,11101,1151982421
1762339439.538798,5868,1151982421,1,-1227,6655,10887,1151983621
1762339439.538798,5868,1151982421,2,-1338,6104,10540,1151984821
1762339439.538798,5868,1151982421,3,-1532,5811,10142,1151986022
1762339439.538798,5868,1151982421,4,-1485,5368,9721,1151987222
1762339439.538798,5868,1151982421,5,-1627,4917,9529,1151988423
1762339439.538798,5868,1151982421,6,-1818,4785,8955,1151989623
1762339439.538798,5868,1151982421,7,-1780,4545,8429,1151990824
1762339439.538798,5868,1151982421,8,-1831,4314,8147,1151992024
1762339439.538798,5868,1151982421,9,-2018,4165,7577,1151993225
1762339439.538798,5868,1151982421,10,-2066,3999,6971,1151994425
1762339439.538798,5868,1151982421,11,-2122,3853,6445,1151995626
1762339439.538798,5868,1151982421,12,-2278,3606,6181,1151996826
1762339439.538798,5868,1151982421,13,-2316,3549,5545,1151998027
1762339439.538798,5868,1151982421,14,-2384,3427,4944,1151999227
1762339439.538798,5868,1151982421,15,-2450,3306,4681,1152000428
1762339439.538798,5868,1151982421,16,-2524,3324,4023,1152001628
1762339439.538798,5868,1151982421,17,-2580,3289,3501,1152002829
1762339439.538798,5868,1151982421,18,-2611,3312,2953,1152004029
1762339439.538798,5868,1151982421,19,-2701,3266,2695,1152005230
1762339439.572570,5869,1152021484,0,-2556,3284,2201,1152021484
1762339439.572570,5869,1152021484,1,-2633,3187,1749,1152022684
1762339439.572570,5869,1152021484,2,-2456,3171,1575,1152023884
1762339439.572570,5869,1152021484,3,-2402,3068,1303,1152025085
1762339439.572570,5869,1152021484,4,-2339,2917,980,1152026285
1762339439.572570,5869,1152021484,5,-2204,2764,609,1152027486
1762339439.572570,5869,1152021484,6,-2095,2689,651,1152028686
1762339439.572570,5869,1152021484,7,-2072,2630,500,1152029887
1762339439.572570,5869,1152021484,8,-1869,2572,374,1152031087
1762339439.572570,5869,1152021484,9,-1892,2485,306,1152032288
1762339439.572570,5869,1152021484,10,-1830,2523,131,1152033488
1762339439.572570,5869,1152021484,11,-1752,2522,-103,1152034689
1762339439.572570,5869,1152021484,12,-1655,2569,-265,1152035889
1762339439.572570,5869,1152021484,13,-1609,2635,-575,1152037090
1762339439.572570,5869,1152021484,14,-1563,2668,-866,1152038290
1762339439.572570,5869,1152021484,15,-1586,2763,-1213,1152039491
1762339439.572570,5869,1152021484,16,-1434,2829,-1416,1152040691
1762339439.572570,5869,1152021484,17,-1403,2837,-1790,1152041892
1762339439.572570,5869,1152021484,18,-1319,2835,-2135,1152043092
1762339439.572570,5869,1152021484,19,-1244,2754,-2308,1152044293
1762339439.707698,5870,1152060546,0,-1231,2732,-2645,1152060546
1762339439.707698,5870,1152060546,1,-1067,2696,-2990,1152061746
1762339439.707698,5870,1152060546,2,-1033,2612,-3269,1152062946
1762339439.707698,5870,1152060546,3,-945,2429,-3411,1152064147
1762339439.707698,5870,1152060546,4,-839,2329,-3628,1152065347
1762339439.707698,5870,1152060546,5,-834,2168,-3845,1152066548
1762339439.707698,5870,1152060546,6,-788,2041,-3995,1152067748
1762339439.707698,5870,1152060546,7,-636,1874,-4210,1152068949
1762339439.707698,5870,1152060546,8,-544,1812,-4342,1152070149
1762339439.707698,5870,1152060546,9,-476,1704,-4423,1152071350
1762339439.707698,5870,1152060546,10,-433,1578,-4584,1152072550
1762339439.707698,5870,1152060546,11,-335,1560,-4704,1152073751
1762339439.707698,5870,1152060546,12,-208,1479,-4819,1152074951
1762339439.707698,5870,1152060546,13,-175,1406,-4877,1152076152
1762339439.707698,5870,1152060546,14,-105,1365,-4920,1152077352
1762339439.707698,5870,1152060546,15,15,1343,-4932,1152078553
1762339439.707698,5870,1152060546,16,93,1298,-4631,1152079753
1762339439.707698,5870,1152060546,17,191,1267,-4803,1152080954
1762339439.707698,5870,1152060546,18,232,1283,-4743,1152082154
1762339439.707698,5870,1152060546,19,303,1231,-4616,1152083355
1762339439.708195,5871,1152099609,0,349,1226,-4573,1152099609
1762339439.708195,5871,1152099609,1,457,1207,-4463,1152100809
1762339439.708195,5871,1152099609,2,787,1148,-4288,1152102009
1762339439.708195,5871,1152099609,3,966,1163,-3894,1152103210
1762339439.708195,5871,1152099609,4,838,1299,-3781,1152104410
1762339439.708195,5871,1152099609,5,795,1397,-3360,1152105611
1762339439.708195,5871,1152099609,6,829,1539,-3114,1152106811
1762339439.708195,5871,1152099609,7,893,1607,-3017,1152108012
1762339439.708195,5871,1152099609,8,1029,1628,-2881,1152109212
1762339439.708195,5871,1152099609,9,1147,1650,-2687,1152110413
1762339439.708195,5871,1152099609,10,1149,1668,-2613,1152111613
1762339439.708195,5871,1152099609,11,1205,1643,-2460,1152112814
1762339439.708195,5871,1152099609,12,1250,1573,-2210,1152114014
1762339439.708195,5871,1152099609,13,1246,1438,-2027,1152115215
1762339439.708195,5871,1152099609,14,1262,1285,-1897,1152116415
1762339439.708195,5871,1152099609,15,1211,1157,-1663,1152117616
1762339439.708195,5871,1152099609,16,1255,972,-1482,1152118816
1762339439.708195,5871,1152099609,17,1199,807,-1417,1152120017
1762339439.708195,5871,1152099609,18,1204,663,-1298,1152121217
1762339439.708195,5871,1152099609,19,1377,623,-1201,1152122418
1762339439.708474,5872,1152138671,0,1294,576,-1092,1152138671
1762339439.708474,5872,1152138671,1,1228,616,-1062,1152139871
1762339439.708474,5872,1152138671,2,1248,679,-1000,1152141071
1762339439.708474,5872,1152138671,3,1249,650,-963,1152142272
1762339439.708474,5872,1152138671,4,1250,673,-957,1152143472
1762339439.708474,5872,1152138671,5,1324,742,-962,1152144673
1762339439.708474,5872,1152138671,6,1297,827,-848,1152145873
1762339439.708474,5872,1152138671,7,1260,880,-565,1152147074
1762339439.708474,5872,1152138671,8,1271,949,-788,1152148274
1762339439.708474,5872,1152138671,9,1299,899,-619,1152149475
1762339439.708474,5872,1152138671,10,1194,870,-530,1152150675
1762339439.708474,5872,1152138671,11,1195,847,-478,1152151876
1762339439.708474,5872,1152138671,12,1235,928,-417,1152153076
1762339439.708474,5872,1152138671,13,1095,879,-375,1152154277
1762339439.708474,5872,1152138671,14,1081,900,-434,1152155477
1762339439.708474,5872,1152138671,15,997,891,-456,1152156678
1762339439.708474,5872,1152138671,16,965,852,-454,1152157878
1762339439.708474,5872,1152138671,17,944,863,-589,1152159079
1762339439.708474,5872,1152138671,18,862,963,-570,1152160279
1762339439.708474,5872,1152138671,19,695,1000,-582,1152161480
1762339439.708764,5873,1152177734,0,630,988,-672,1152177734
1762339439.708764,5873,1152177734,1,591,1015,-698,1152178934
1762339439.708764,5873,1152177734,2,492,1136,-703,1152180134
1762339439.708764,5873,1152177734,3,429,1161,-764,1152181335
1762339439.708764,5873,1152177734,4,279,1291,-617,1152182535
1762339439.708764,5873,1152177734,5,183,1269,-554,1152183736
1762339439.708764,5873,1152177734,6,87,1520,-432,1152184936
1762339439.708764,5873,1152177734,7,-53,1365,-358,1152186137
1762339439.708764,5873,1152177734,8,-78,1556,-294,1152187337
1762339439.708764,5873,1152177734,9,-292,1612,-135,1152188538
1762339439.708764,5873,1152177734,10,-436,1711,-1,1152189738
1762339439.708764,5873,1152177734,11,-505,1745,134,1152190939
1762339439.708764,5873,1152177734,12,-572,1808,199,1152192139
1762339439.708764,5873,1152177734,13,-709,1782,415,1152193340
1762339439.708764,5873,1152177734,14,-781,1800,735,1152194540
1762339439.708764,5873,1152177734,15,-810,1792,944,1152195741
1762339439.708764,5873,1152177734,16,-992,1834,1348,1152196941
1762339439.708764,5873,1152177734,17,-1000,1890,1593,1152198142
1762339439.708764,5873,1152177734,18,-1152,1955,2052,1152199342
1762339439.708764,5873,1152177734,19,-1195,1991,2266,1152200543
1762339439.752584,5874,1152216796,0,-1329,2211,2723,1152216796
1762339439.752584,5874,1152216796,1,-1392,2142,3104,1152217996
1762339439.752584,5874,1152216796,2,-1499,2342,3344,1152219196
1762339439.752584,5874,1152216796,3,-1562,2672,3686,1152220397
1762339439.752584,5874,1152216796,4,-1670,2738,4064,1152221597
1762339439.752584,5874,1152216796,5,-1782,3153,4349,1152222798
1762339439.752584,5874,1152216796,6,-1817,3581,4497,1152223998
1762339439.752584,5874,1152216796,7,-1896,3854,4775,1152225199
1762339439.752584,5874,1152216796,8,-1917,4325,5000,1152226399
1762339439.752584,5874,1152216796,9,-1922,4793,5061,1152227600
1762339439.752584,5874,1152216796,10,-1917,5173,5350,1152228800
1762339439.752584,5874,1152216796,11,-1930,5322,5559,1152230001
1762339439.752584,5874,1152216796,12,-1925,5663,5763,1152231201
1762339439.752584,5874,1152216796,13,-1933,5977,6121,1152232402
1762339439.752584,5874,1152216796,14,-1929,6112,6460,1152233602
1762339439.752584,5874,1152216796,15,-1993,6446,6798,1152234803
1762339439.752584,5874,1152216796,16,-1958,6889,7035,1152236003
1762339439.752584,5874,1152216796,17,-1944,7407,7468,1152237204
1762339439.752584,5874,1152216796,18,-1878,7737,7920,1152238404
1762339439.752584,5874,1152216796,19,-1978,8304,8403,1152239605
1762339439.889157,5875,1152255859,0,-2021,8981,8537,1152255859
1762339439.889157,5875,1152255859,1,-2056,9201,9317,1152257059
1762339439.889157,5875,1152255859,2,-2097,9827,9473,1152258259
1762339439.889157,5875,1152255859,3,-2027,10482,9509,1152259460
1762339439.889157,5875,1152255859,4,-1789,11073,9691,1152260660
1762339439.889157,5875,1152255859,5,-1677,11432,9935,1152261861
1762339439.889157,5875,1152255859,6,-1640,11934,10099,1152263061
1762339439.889157,5875,1152255859,7,-1699,12325,10511,1152264262
1762339439.889157,5875,1152255859,8,-1681,12477,11009,1152265462
1762339439.889157,5875,1152255859,9,-1752,12763,11548,1152266663
1762339439.889157,5875,1152255859,10,-1758,12982,11825,1152267863
1762339439.889157,5875,1152255859,11,-1740,13299,12385,1152269064
1762339439.889157,5875,1152255859,12,-1746,13155,12885,1152270264
1762339439.889157,5875,1152255859,13,-1781,13164,13098,1152271465
1762339439.889157,5875,1152255859,14,-1835,13045,13518,1152272665
1762339439.889157,5875,1152255859,15,-1702,12946,13857,1152273866
1762339439.889157,5875,1152255859,16,-1676,12605,14014,1152275066
1762339439.889157,5875,1152255859,17,-1691,12057,14022,1152276267
1762339439.889157,5875,1152255859,18,-1728,11346,13597,1152277467
1762339439.889157,5875,1152255859,19,-1757,10709,12925,1152278668
1762339439.889755,5876,1152294921,0,-1857,10042,12505,1152294921
1762339439.889755,5876,1152294921,1,-1707,9580,11924,1152296121
1762339439.889755,5876,1152294921,2,-1873,9217,11691,1152297321
1762339439.889755,5876,1152294921,3,-1851,8785,11501,1152298522
1762339439.889755,5876,1152294921,4,-1882,8106,11260,1152299722
1762339439.889755,5876,1152294921,5,-2088,7788,10937,1152300923
1762339439.889755,5876,1152294921,6,-2125,7117,10503,1152302123
1762339439.889755,5876,1152294921,7,-2104,6614,10259,1152303324
1762339439.889755,5876,1152294921,8,-2191,6138,9704,1152304524
1762339439.889755,5876,1152294921,9,-2459,5910,9174,1152305725
1762339439.889755,5876,1152294921,10,-2461,5533,8509,1152306925
1762339439.889755,5876,1152294921,11,-2503,5200,8202,1152308126
1762339439.889755,5876,1152294921,12,-2728,5047,7558,1152309326
1762339439.889755,5876,1152294921,13,-2737,4687,6844,1152310527
1762339439.889755,5876,1152294921,14,-2841,4487,6482,1152311727
1762339439.889755,5876,1152294921,15,-2924,4302,5738,1152312928
1762339439.889755,5876,1152294921,16,-3051,4197,4915,1152314128
1762339439.889755,5876,1152294921,17,-2872,3989,4293,1152315329
1762339439.889755,5876,1152294921,18,-3171,3775,3816,1152316529
1762339439.889755,5876,1152294921,19,-3223,3723,3013,1152317730
1762339439.890084,5877,1152333984,0,-3278,3469,2258,1152333984
1762339439.890084,5877,1152333984,1,-3350,3218,1965,1152335184
1762339439.890084,5877,1152333984,2,-3218,2845,1206,1152336384
1762339439.890084,5877,1152333984,3,-3235,2948,613,1152337585
1762339439.890084,5877,1152333984,4,-3247,2675,263,1152338785
1762339439.890084,5877,1152333984,5,-3125,2490,-342,1152339986
1762339439.890084,5877,1152333984,6,-3071,2377,-828,1152341186
1762339439.890084,5877,1152333984,7,-3018,2203,-1431,1152342387
1762339439.890084,5877,1152333984,8,-2929,2035,-1725,1152343587
1762339439.890084,5877,1152333984,9,-2789,1858,-2347,1152344788
1762339439.890084,5877,1152333984,10,-2680,1765,-3007,1152345988
1762339439.890084,5877,1152333984,11,-2466,1612,-3299,1152347189
1762339439.890084,5877,1152333984,12,-2324,1452,-3876,1152348389
1762339439.890084,5877,1152333984,13,-2089,1323,-4458,1152349590
1762339439.890084,5877,1152333984,14,-1805,1158,-5000,1152350790
1762339439.890084,5877,1152333984,15,-1724,1039,-5236,1152351991
1762339439.890084,5877,1152333984,16,-1592,990,-5664,1152353191
1762339439.890084,5877,1152333984,17,-1342,776,-6089,1152354392
1762339439.890084,5877,1152333984,18,-1228,610,-6255,1152355592
1762339439.890084,5877,1152333984,19,-1028,368,-6569,1152356793
1762339439.932283,5878,1152373046,0,-825,264,-6782,1152373046
1762339439.932283,5878,1152373046,1,-577,38,-6924,1152374246
1762339439.932283,5878,1152373046,2,-500,-104,-7082,1152375446
1762339439.932283,5878,1152373046,3,-378,-217,-7291,1152376647
1762339439.932283,5878,1152373046,4,-192,-385,-7436,1152377847
1762339439.932283,5878,1152373046,5,-128,-472,-7501,1152379048
1762339439.932283,5878,1152373046,6,72,-595,-7531,1152380248
1762339439.932283,5878,1152373046,7,172,-652,-7481,1152381449
1762339439.932283,5878,1152373046,8,363,-717,-7183,1152382649
1762339439.932283,5878,1152373046,9,456,-820,-7294,1152383850
1762339439.932283,5878,1152373046,10,684,-878,-7053,1152385050
1762339439.932283,5878,1152373046,11,750,-1006,-6724,1152386251
1762339439.932283,5878,1152373046,12,1014,-1158,-6583,1152387451
1762339439.932283,5878,1152373046,13,1214,-1220,-6138,1152388652
1762339439.932283,5878,1152373046,14,1093,-1283,-5536,1152389852
1762339439.932283,5878,1152373046,15,1118,-1242,-5348,1152391053
1762339439.932283,5878,1152373046,16,1273,-1099,-5053,1152392253
1762339439.932283,5878,1152373046,17,1388,-1063,-4744,1152393454
1762339439.932283,5878,1152373046,18,1465,-944,-4457,1152394654
1762339439.932283,5878,1152373046,19,1499,-884,-4330,1152395855
1762339439.933546,5879,1152412109,0,1510,-564,-4072,1152412109
1762339439.933546,5879,1152412109,1,1575,-707,-3794,1152413309
1762339439.933546,5879,1152412109,2,1667,-638,-3640,1152414509
1762339439.933546,5879,1152412109,3,1798,-586,-3308,1152415710
1762339439.933546,5879,1152412109,4,1792,-525,-2940,1152416910
1762339439.933546,5879,1152412109,5,1886,-512,-2533,1152418111
1762339439.933546,5879,1152412109,6,1876,-500,-2323,1152419311
1762339439.933546,5879,1152412109,7,1909,-494,-1942,1152420512
1762339439.933546,5879,1152412109,8,2025,-507,-1601,1152421712
1762339439.933546,5879,1152412109,9,2289,-524,-1439,1152422913
1762339439.933546,5879,1152412109,10,2090,-539,-1065,1152424113
1762339439.933546,5879,1152412109,11,2055,-573,-808,1152425314
1762339439.933546,5879,1152412109,12,2252,-606,-537,1152426514
1762339439.933546,5879,1152412109,13,2210,-605,-384,1152427715
1762339439.933546,5879,1152412109,14,2149,-511,-198,1152428915
1762339439.933546,5879,1152412109,15,2207,-329,-27,1152430116
1762339439.933546,5879,1152412109,16,2156,-221,69,1152431316
1762339439.933546,5879,1152412109,17,2240,-65,129,1152432517
1762339439.933546,5879,1152412109,18,2115,42,136,1152433717
1762339439.933546,5879,1152412109,19,2154,288,106,1152434918
1762339440.075061,5880,1152451171,0,2093,436,-2,1152451171
1762339440.075061,5880,1152451171,1,2058,602,-71,1152452371
1762339440.075061,5880,1152451171,2,2055,649,-268,1152453571
1762339440.075061,5880,1152451171,3,1946,790,-379,1152454772
1762339440.075061,5880,1152451171,4,1846,907,-627,1152455972
1762339440.075061,5880,1152451171,5,1778,970,-814,1152457173
1762339440.075061,5880,1152451171,6,1575,1011,-857,1152458373
1762339440.075061,5880,1152451171,7,1616,1165,-991,1152459574
1762339440.075061,5880,1152451171,8,1500,1261,-1037,1152460774
1762339440.075061,5880,1152451171,9,1454,1300,-1111,1152461975
1762339440.075061,5880,1152451171,10,1392,1322,-1113,1152463175
1762339440.075061,5880,1152451171,11,1293,1315,-1130,1152464376
1762339440.075061,5880,1152451171,12,1268,1299,-1151,1152465576
1762339440.075061,5880,1152451171,13,1264,1297,-1162,1152466777
1762339440.075061,5880,1152451171,14,1099,1370,-1152,1152467977
1762339440.075061,5880,1152451171,15,987,1358,-1169,1152469178
1762339440.075061,5880,1152451171,16,867,1433,-1220,1152470378
1762339440.075061,5880,1152451171,17,905,1330,-1247,1152471579
1762339440.075061,5880,1152451171,18,816,1091,-1204,1152472779
1762339440.075061,5880,1152451171,19,662,1250,-1188,1152473980
1762339440.075544,5881,1152490234,0,653,1288,-1158,1152490234
1762339440.075544,5881,1152490234,1,489,1243,-1010,1152491434
1762339440.075544,5881,1152490234,2,345,1357,-866,1152492634
1762339440.075544,5881,1152490234,3,157,1466,-736,1152493835
1762339440.075544,5881,1152490234,4,-25,1669,-652,1152495035
1762339440.075544,5881,1152490234,5,-188,2040,-662,1152496236
1762339440.075544,5881,1152490234,6,-386,1880,-707,1152497436
1762339440.075544,5881,1152490234,7,-379,2117,-722,1152498637
1762339440.075544,5881,1152490234,8,-577,2155,-627,1152499837
1762339440.075544,5881,1152490234,9,-638,2277,-302,1152501038
1762339440.075544,5881,1152490234,10,-879,2117,107,1152502238
1762339440.075544,5881,1152490234,11,-950,2159,307,1152503439
1762339440.075544,5881,1152490234,12,-1012,2137,801,1152504639
1762339440.075544,5881,1152490234,13,-1128,2177,1406,1152505840
1762339440.075544,5881,1152490234,14,-1212,2163,1697,1152507040
1762339440.075544,5881,1152490234,15,-1257,2216,2297,1152508241
1762339440.075544,5881,1152490234,16,-1313,2361,2883,1152509441
1762339440.075544,5881,1152490234,17,-1448,2469,3426,1152510642
1762339440.075544,5881,1152490234,18,-1544,2663,3709,1152511842
1762339440.075544,5881,1152490234,19,-1660,2792,4129,1152513043
1762339440.075886,5882,1152529296,0,-1544,3112,4418,1152529296
1762339440.075886,5882,1152529296,1,-1623,3421,4676,1152530496
1762339440.075886,5882,1152529296,2,-1716,3695,4986,1152531696
1762339440.075886,5882,1152529296,3,-1784,3834,5226,1152532897
1762339440.075886,5882,1152529296,4,-1804,4298,5572,1152534097
1762339440.075886,5882,1152529296,5,-1773,4621,5459,1152535298
1762339440.075886,5882,1152529296,6,-1705,4907,5637,1152536498
1762339440.075886,5882,1152529296,7,-1745,5282,5693,1152537699
1762339440.075886,5882,1152529296,8,-1701,5831,5720,1152538899
1762339440.075886,5882,1152529296,9,-1658,6404,5767,1152540100
1762339440.075886,5882,1152529296,10,-1777,6734,5847,1152541300
1762339440.075886,5882,1152529296,11,-1828,7415,6123,1152542501
1762339440.075886,5882,1152529296,12,-1852,8144,5881,1152543701
1762339440.075886,5882,1152529296,13,-1850,8452,5898,1152544902
1762339440.075886,5882,1152529296,14,-1997,9229,6069,1152546102
1762339440.075886,5882,1152529296,15,-2056,10020,6128,1152547303
1762339440.075886,5882,1152529296,16,-2123,10914,6365,1152548503
1762339440.075886,5882,1152529296,17,-2134,11167,6600,1152549704
1762339440.075886,5882,1152529296,18,-2503,11941,7065,1152550904
1762339440.075886,5882,1152529296,19,-2262,12545,7376,1152552105
1762339440.112575,5883,1152568359,0,-2192,12758,7972,1152568359
1762339440.112575,5883,1152568359,1,-2288,13220,8863,1152569559
1762339440.112575,5883,1152568359,2,-2321,13529,9306,1152570759
1762339440.112575,5883,1152568359,3,-2282,13653,10226,1152571960
1762339440.112575,5883,1152568359,4,-2190,13926,11117,1152573160
1762339440.112575,5883,1152568359,5,-2176,14163,11523,1152574361
1762339440.112575,5883,1152568359,6,-2153,14299,12423,1152575561
1762339440.112575,5883,1152568359,7,-1976,14426,13102,1152576762
1762339440.112575,5883,1152568359,8,-1855,14495,13713,1152577962
1762339440.112575,5883,1152568359,9,-1814,14490,13953,1152579163
1762339440.112575,5883,1152568359,10,-1792,14445,14221,1152580363
1762339440.112575,5883,1152568359,11,-1981,14249,14275,1152581564
1762339440.112575,5883,1152568359,12,-1859,13804,14272,1152582764
1762339440.112575,5883,1152568359,13,-1600,12812,13865,1152583965
1762339440.112575,5883,1152568359,14,-1637,12169,13076,1152585165
1762339440.112575,5883,1152568359,15,-1710,10993,12034,1152586366
1762339440.112575,5883,1152568359,16,-1701,10364,11337,1152587566
1762339440.112575,5883,1152568359,17,-1650,10157,10139,1152588767
1762339440.112575,5883,1152568359,18,-1680,9835,9248,1152589967
1762339440.112575,5883,1152568359,19,-1690,9299,8878,1152591168
1762339440.270239,5884,1152607421,0,-1762,8680,8213,1152607421
1762339440.270239,5884,1152607421,1,-1843,8397,7642,1152608621
1762339440.270239,5884,1152607421,2,-1962,7755,7091,1152609821
1762339440.270239,5884,1152607421,3,-2021,7190,6789,1152611022
1762339440.270239,5884,1152607421,4,-2075,6936,6244,1152612222
1762339440.270239,5884,1152607421,5,-2222,6474,5748,1152613423
1762339440.270239,5884,1152607421,6,-2169,5947,5416,1152614623
1762339440.270239,5884,1152607421,7,-2351,5597,4825,1152615824
1762339440.270239,5884,1152607421,8,-2392,5377,4144,1152617024
1762339440.270239,5884,1152607421,9,-2425,5112,3571,1152618225
1762339440.270239,5884,1152607421,10,-2568,4896,3354,1152619425
1762339440.270239,5884,1152607421,11,-2637,4749,2782,1152620626
1762339440.270239,5884,1152607421,12,-2587,4501,2094,1152621826
1762339440.270239,5884,1152607421,13,-2650,4228,1771,1152623027
1762339440.270239,5884,1152607421,14,-2465,4082,1163,1152624227
1762339440.270239,5884,1152607421,15,-2453,3761,761,1152625428
1762339440.270239,5884,1152607421,16,-2182,3348,304,1152626628
1762339440.270239,5884,1152607421,17,-2216,3034,100,1152627829
1762339440.270239,5884,1152607421,18,-2034,2855,-276,1152629029
1762339440.270239,5884,1152607421,19,-1860,2528,-511,1152630230
1762339440.270773,5885,1152646484,0,-1807,2280,-640,1152646484
1762339440.270773,5885,1152646484,1,-1713,1865,-880,1152647684
1762339440.270773,5885,1152646484,2,-1460,1923,-1192,1152648884
1762339440.270773,5885,1152646484,3,-1079,1753,-1295,1152650085
1762339440.270773,5885,1152646484,4,-1281,1568,-1586,1152651285
1762339440.270773,5885,1152646484,5,-1093,1494,-1912,1152652486
1762339440.270773,5885,1152646484,6,-811,1359,-2282,1152653686
1762339440.270773,5885,1152646484,7,-832,1212,-2424,1152654887
1762339440.270773,5885,1152646484,8,-618,1181,-2741,1152656087
1762339440.270773,5885,1152646484,9,-435,1044,-3054,1152657288
1762339440.270773,5885,1152646484,10,-363,904,-3240,1152658488
1762339440.270773,5885,1152646484,11,-253,684,-3502,1152659689
1762339440.270773,5885,1152646484,12,-77,623,-3762,1152660889
1762339440.270773,5885,1152646484,13,97,451,-4016,1152662090
1762339440.270773,5885,1152646484,14,171,238,-4130,1152663290
1762339440.270773,5885,1152646484,15,282,140,-4324,1152664491
1762339440.270773,5885,1152646484,16,388,-37,-4512,1152665691
1762339440.270773,5885,1152646484,17,507,-246,-4624,1152666892
1762339440.270773,5885,1152646484,18,599,-488,-4808,1152668092
1762339440.270773,5885,1152646484,19,733,-583,-5016,1152669293
1762339440.271102,5886,1152685546,0,904,-778,-5126,1152685546
1762339440.271102,5886,1152685546,1,971,-1002,-5273,1152686746
1762339440.271102,5886,1152685546,2,1131,-1124,-5383,1152687946
1762339440.271102,5886,1152685546,3,1291,-1340,-5455,1152689147
1762339440.271102,5886,1152685546,4,1408,-1564,-5441,1152690347
1762339440.271102,5886,1152685546,5,1649,-1709,-5341,1152691548
1762339440.271102,5886,1152685546,6,1618,-1801,-5089,1152692748
1762339440.271102,5886,1152685546,7,1657,-1918,-4689,1152693949
1762339440.271102,5886,1152685546,8,1776,-1866,-4665,1152695149
1762339440.271102,5886,1152685546,9,1914,-1785,-4284,1152696350
1762339440.271102,5886,1152685546,10,1997,-1614,-3858,1152697550
1762339440.271102,5886,1152685546,11,2028,-1521,-3672,1152698751
1762339440.271102,5886,1152685546,12,2139,-1473,-3364,1152699951
1762339440.271102,5886,1152685546,13,2246,-1449,-3117,1152701152
1762339440.271102,5886,1152685546,14,2542,-1402,-2980,1152702352
1762339440.271102,5886,1152685546,15,2389,-1368,-2707,1152703553
1762339440.271102,5886,1152685546,16,2454,-1327,-2385,1152704753
1762339440.271102,5886,1152685546,17,2611,-1291,-2106,1152705954
1762339440.271102,5886,1152685546,18,2657,-1234,-1931,1152707154
1762339440.271102,5886,1152685546,19,2625,-1180,-1548,1152708355
1762339440.271381,5887,1152724609,0,2677,-1155,-1246,1152724609
1762339440.271381,5887,1152724609,1,2680,-1169,-1103,1152725809
1762339440.271381,5887,1152724609,2,2637,-1181,-923,1152727009
1762339440.271381,5887,1152724609,3,2675,-1237,-796,1152728210
1762339440.271381,5887,1152724609,4,2704,-1316,-718,1152729410
1762339440.271381,5887,1152724609,5,2713,-1438,-719,1152730611
1762339440.271381,5887,1152724609,6,2788,-1392,-567,1152731811
1762339440.271381,5887,1152724609,7,2699,-1335,-489,1152733012
1762339440.271381,5887,1152724609,8,2677,-1121,-517,1152734212
1762339440.271381,5887,1152724609,9,2633,-741,-774,1152735413
1762339440.271381,5887,1152724609,10,2512,-582,-1137,1152736613
1762339440.271381,5887,1152724609,11,2476,-274,-1519,1152737814
1762339440.271381,5887,1152724609,12,2440,-118,-1642,1152739014
1762339440.271381,5887,1152724609,13,2391,10,-1869,1152740215
1762339440.271381,5887,1152724609,14,2404,152,-1898,1152741415
1762339440.271381,5887,1152724609,15,2374,293,-1932,1152742616
1762339440.271381,5887,1152724609,16,2310,356,-1853,1152743816
1762339440.271381,5887,1152724609,17,2328,404,-1850,1152745017
1762339440.271381,5887,1152724609,18,2339,449,-1789,1152746217
1762339440.271381,5887,1152724609,19,2334,565,-1704,1152747418
1762339440.292674,5888,1152763671,0,2178,529,-1602,1152763671
1762339440.292674,5888,1152763671,1,2103,566,-1626,1152764871
1762339440.292674,5888,1152763671,2,2084,634,-1638,1152766071
1762339440.292674,5888,1152763671,3,1973,554,-1704,1152767272
1762339440.292674,5888,1152763671,4,1946,546,-1837,1152768472
1762339440.292674,5888,1152763671,5,1681,763,-1896,1152769673
1762339440.292674,5888,1152763671,6,1587,826,-1919,1152770873
1762339440.292674,5888,1152763671,7,1473,762,-1979,1152772074
1762339440.292674,5888,1152763671,8,1386,575,-1951,1152773274
1762339440.292674,5888,1152763671,9,1348,311,-1899,1152774475
1762339440.292674,5888,1152763671,10,1113,223,-1885,1152775675
1762339440.292674,5888,1152763671,11,1076,250,-1879,1152776876
1762339440.292674,5888,1152763671,12,824,322,-1852,1152778076
1762339440.292674,5888,1152763671,13,959,243,-1787,1152779277
1762339440.292674,5888,1152763671,14,884,201,-1791,1152780477
1762339440.292674,5888,1152763671,15,773,180,-1600,1152781678
1762339440.292674,5888,1152763671,16,753,122,-1530,1152782878
1762339440.292674,5888,1152763671,17,635,-160,-1221,1152784079
1762339440.292674,5888,1152763671,18,510,-34,-937,1152785279
1762339440.292674,5888,1152763671,19,509,-91,-835,1152786480
1762339440.470334,5889,1152802734,0,354,-200,-449,1152802734
1762339440.470334,5889,1152802734,1,168,-189,-229,1152803934
1762339440.470334,5889,1152802734,2,-12,-138,0,1152805134
1762339440.470334,5889,1152802734,3,16,-22,130,1152806335
1762339440.470334,5889,1152802734,4,-291,29,359,1152807535
1762339440.470334,5889,1152802734,5,-389,149,482,1152808736
1762339440.470334,5889,1152802734,6,-597,239,655,1152809936
1762339440.470334,5889,1152802734,7,-773,546,758,1152811137
1762339440.470334,5889,1152802734,8,-857,725,979,1152812337
1762339440.470334,5889,1152802734,9,-1014,738,1168,1152813538
1762339440.470334,5889,1152802734,10,-1078,953,1313,1152814738
1762339440.470334,5889,1152802734,11,-1266,1093,1682,1152815939
1762339440.470334,5889,1152802734,12,-1434,1272,1995,1152817139
1762339440.470334,5889,1152802734,13,-1518,1420,2310,1152818340
1762339440.470334,5889,1152802734,14,-1723,1691,2789,1152819540
1762339440.470334,5889,1152802734,15,-2039,1713,3132,1152820741
1762339440.470334,5889,1152802734,16,-2258,2221,3369,1152821941
1762339440.470334,5889,1152802734,17,-2261,2714,3886,1152823142
1762339440.470334,5889,1152802734,18,-2456,2941,4064,1152824342
1762339440.470334,5889,1152802734,19,-2761,3453,4529,1152825543
1762339440.470900,5890,1152841796,0,-2810,3987,4665,1152841796
1762339440.470900,5890,1152841796,1,-3032,4658,4827,1152842996
1762339440.470900,5890,1152841796,2,-3162,4898,5325,1152844196
1762339440.470900,5890,1152841796,3,-3115,5473,5735,1152845397
1762339440.470900,5890,1152841796,4,-3168,5940,5938,1152846597
1762339440.470900,5890,1152841796,5,-3105,6133,6601,1152847798
1762339440.470900,5890,1152841796,6,-3188,6577,7182,1152848998
1762339440.470900,5890,1152841796,7,-3180,7074,7436,1152850199
1762339440.470900,5890,1152841796,8,-3126,7376,8219,1152851399
1762339440.470900,5890,1152841796,9,-3087,7782,8911,1152852600
1762339440.470900,5890,1152841796,10,-3026,8238,9721,1152853800
1762339440.470900,5890,1152841796,11,-2835,8888,9899,1152855001
1762339440.470900,5890,1152841796,12,-2607,9273,10442,1152856201
1762339440.470900,5890,1152841796,13,-2423,10048,10926,1152857402
1762339440.470900,5890,1152841796,14,-2236,10785,11005,1152858602
1762339440.470900,5890,1152841796,15,-2061,11407,11333,1152859803
1762339440.470900,5890,1152841796,16,-1715,11711,11527,1152861003
1762339440.470900,5890,1152841796,17,-1400,12180,11623,1152862204
1762339440.470900,5890,1152841796,18,-1409,12524,11746,1152863404
1762339440.470900,5890,1152841796,19,-1167,12549,11853,1152864605
1762339440.471176,5891,1152880859,0,-1043,12615,11865,1152880859
1762339440.471176,5891,1152880859,1,-1046,12626,11860,1152882059
1762339440.471176,5891,1152880859,2,-950,12607,11803,1152883259
1762339440.471176,5891,1152880859,3,-818,12509,11590,1152884460
1762339440.471176,5891,1152880859,4,-793,12361,11456,1152885660
1762339440.471176,5891,1152880859,5,-927,12187,11133,1152886861
1762339440.471176,5891,1152880859,6,-950,12099,10448,1152888061
1762339440.471176,5891,1152880859,7,-727,11669,9631,1152889262
1762339440.471176,5891,1152880859,8,-675,10989,9255,1152890462
1762339440.471176,5891,1152880859,9,-726,10377,8522,1152891663
1762339440.471176,5891,1152880859,10,-754,10085,7930,1152892863
1762339440.471176,5891,1152880859,11,-803,9440,7776,1152894064
1762339440.471176,5891,1152880859,12,-807,8741,7572,1152895264
1762339440.471176,5891,1152880859,13,-884,8388,7473,1152896465
1762339440.471176,5891,1152880859,14,-933,7732,7415,1152897665
1762339440.471176,5891,1152880859,15,-979,7226,7296,1152898866
1762339440.471176,5891,1152880859,16,-1181,7004,7175,1152900066
1762339440.471176,5891,1152880859,17,-1232,6702,6884,1152901267
1762339440.471176,5891,1152880859,18,-1218,6404,6767,1152902467
1762339440.471176,5891,1152880859,19,-1268,6195,6463,1152903668
1762339440.471777,5892,1152919921,0,-1340,6116,6144,1152919921
1762339440.471777,5892,1152919921,1,-1375,5952,5704,1152921121
1762339440.471777,5892,1152919921,2,-1345,5742,5671,1152922321
1762339440.471777,5892,1152919921,3,-1444,5643,5331,1152923522
1762339440.471777,5892,1152919921,4,-1382,5487,4982,1152924722
1762339440.471777,5892,1152919921,5,-1390,5284,4860,1152925923
1762339440.471777,5892,1152919921,6,-1249,5040,4618,1152927123
1762339440.471777,5892,1152919921,7,-1249,4967,4375,1152928324
1762339440.471777,5892,1152919921,8,-1061,4691,4297,1152929524
1762339440.471777,5892,1152919921,9,-1252,4429,4095,1152930725
1762339440.471777,5892,1152919921,10,-1106,4315,3873,1152931925
1762339440.471777,5892,1152919921,11,-1042,4132,3758,1152933126
1762339440.471777,5892,1152919921,12,-992,3979,3675,1152934326
1762339440.471777,5892,1152919921,13,-951,3942,3453,1152935527
1762339440.471777,5892,1152919921,14,-857,3867,3187,1152936727
1762339440.471777,5892,1152919921,15,-523,3860,3048,1152937928
1762339440.471777,5892,1152919921,16,-725,3693,2819,1152939128
