# t,ax,ay,az (t in seconds since start)
0.000000,2704,2064,-1504
0.001200,2712,2089,-1625
0.002401,2876,2141,-1640
0.003601,2815,2072,-1580
0.004802,2775,2188,-1757
0.006002,2750,2189,-1548
0.007203,2618,2208,-1449
0.008403,2659,2313,-1589
0.009604,2796,2319,-1489
0.010804,2802,2341,-1382
0.012005,2781,2451,-1355
0.013205,2767,2493,-1268
0.014406,2765,2785,-1171
0.015606,2795,2601,-1204
0.016807,3064,2659,-1188
0.018007,2844,2700,-1155
0.019208,2820,2739,-1127
0.020408,2784,2805,-1072
0.021609,2800,2859,-1067
0.022809,2876,2897,-998
0.000184,2887,2966,-954
0.001385,2886,3039,-914
0.002585,2859,3077,-853
0.003786,2865,3083,-804
0.004986,2907,3123,-723
0.006187,2907,3096,-713
0.007387,2927,3100,-740
0.008588,2963,3081,-742
0.009788,2978,3025,-697
0.010989,3000,2964,-714
0.012189,3042,2926,-660
0.013390,3042,2866,-667
0.014590,3054,2796,-709
0.015791,3076,2769,-736
0.016991,3046,2711,-702
0.018191,3063,2661,-740
0.019392,3060,2604,-758
0.020592,3028,2575,-775
0.021793,3054,2526,-832
0.022993,3077,2458,-842
0.000269,3079,2434,-908
0.001470,3057,2393,-926
0.002670,3063,2342,-900
0.003871,3001,2340,-921
0.005071,2987,2322,-976
0.006272,2997,2304,-1251
0.007472,2978,2300,-1103
0.008673,2956,2278,-1198
0.009873,2959,2299,-1205
0.011074,2932,2280,-1233
0.012274,2909,2284,-1311
0.013475,2944,2257,-1403
0.014675,2944,2228,-1434
0.015876,2949,2205,-1491
0.017076,2959,2198,-1504
0.018277,2964,2189,-1500
0.019477,2942,2170,-1486
0.020678,2964,2178,-1434
0.021878,2954,2173,-1447
0.023079,2955,2196,-1427
0.084635,2948,2234,-1423
0.085835,2966,2248,-1489
0.087036,2985,2293,-1537
0.088236,2989,2354,-1538
0.089437,2989,2376,-1557
0.090637,3008,2441,-1583
0.091838,3016,2484,-1564
0.093038,3022,2530,-1571
0.094238,3062,2561,-1509
0.095439,3049,2618,-1426
0.096639,3039,2647,-1410
0.097840,3057,2671,-1372
0.099040,3056,2703,-1278
0.100241,3036,2730,-1236
0.101441,3034,2759,-1183
0.102642,3055,2761,-1093
0.103842,3068,2785,-794
0.105043,3067,2782,-959
0.106243,3067,2790,-886
0.107444,3074,2769,-751
0.084802,3095,2767,-686
0.086003,3108,2736,-534
0.087203,3149,2724,-286
0.088404,3175,2724,-154
0.089604,3203,2795,129
0.090805,3199,2791,350
0.092005,3243,2868,524
0.093206,3216,2927,581
0.094406,3235,2964,666
0.095606,3273,3076,790
0.096807,3275,3192,880
0.098007,3287,3300,1120
0.099208,3317,3354,1368
0.100408,3396,3435,1746
0.101609,3418,3457,1973
0.102809,3494,3445,2491
0.104010,3493,3391,3086
0.105210,3526,3327,3390
0.106411,3542,3280,3932
0.107611,3569,3293,4375
0.084881,3558,3325,4795
0.086081,3513,3417,5008
0.087282,3433,3470,5395
0.088482,3350,3637,5678
0.089683,3309,3771,5787
0.090883,3220,3886,5883
0.092084,3093,3924,5741
0.093284,2880,3978,5495
0.094485,2726,3963,5337
0.095685,2457,3929,4928
0.096886,2181,3836,4421
0.098086,2045,3784,4141
0.099287,1815,3678,3492
0.100487,1622,3634,2883
0.101688,1512,3515,2062
0.102888,1485,3416,1958
0.104088,1482,3329,1358
0.105289,1430,3119,787
0.106489,1385,2872,535
0.107690,1216,2582,71
0.137686,1067,2453,-511
0.138887,797,2255,-1044
0.140087,649,2026,-1392
0.141287,326,1928,-1932
0.142488,25,1674,-2524
0.143688,-148,1458,-2847
0.144889,-389,1201,-3609
0.146089,-624,1109,-4440
0.147290,-716,913,-5446
0.148490,-806,733,-5899
0.149691,-818,660,-6799
0.150891,-782,514,-7688
0.152092,-743,407,-8138
0.153292,-641,370,-9063
0.154493,-522,264,-9873
0.155693,-440,188,-10214
0.156894,-306,136,-10851
0.158094,-161,100,-11433
0.159295,-44,30,-11897
0.160495,9,-22,-12114
0.217457,98,-51,-12483
0.218657,197,-79,-12728
0.219858,502,-106,-12850
0.221058,329,-96,-13046
0.222259,430,-85,-13119
0.223459,483,-49,-13106
0.224660,495,39,-13019
0.225860,509,58,-12645
0.227061,444,127,-11873
0.228261,466,248,-11348
0.229462,615,415,-10367
0.230662,791,504,-9456
0.231863,891,724,-8598
0.233063,896,926,-8171
0.234264,822,1002,-7325
0.235464,769,1181,-6608
0.236664,773,1395,-6310
0.237865,811,1609,-5731
0.239065,922,1716,-5261
0.240266,1038,1903,-4767
0.217790,1119,2070,-4550
0.218991,1290,2159,-4057
0.220191,1455,2289,-3631
0.221392,1524,2388,-3423
0.222592,1705,2398,-2996
0.223793,1870,2384,-2580
0.224993,1948,2342,-2134
0.226194,2038,2237,-2033
0.227394,2050,2170,-1706
0.228595,2020,2065,-1409
0.229795,1998,1978,-1286
0.230995,1951,1947,-1062
0.232196,1940,1888,-919
0.233396,1955,1869,-933
0.234597,2039,1870,-964
0.235797,2146,1896,-1009
0.236998,2340,1974,-1104
0.238198,2473,2069,-1177
0.239399,2853,2137,-1181
0.240599,3244,2306,-851
0.282554,3411,2476,-565
0.283754,3599,2625,289
0.284955,3631,2688,1501
0.286155,3534,2692,2864
0.287356,3424,2677,3543
0.288556,3321,2674,4686
0.289757,3393,2724,5469
0.290957,3459,2779,5765
0.292158,3497,2885,6306
0.293358,3530,2979,6711
0.294559,3568,3249,7018
0.295759,3613,3523,7054
0.296960,3695,3637,6830
0.298160,3809,3808,6126
0.299361,3831,3900,5661
0.300561,3742,3885,4850
0.301762,3542,3856,4387
0.302962,3268,3790,3945
0.304162,3148,3706,3758
0.305363,2921,3652,3287
0.329298,2700,3537,2731
0.330499,2588,3422,2394
0.331699,2336,3277,1750
0.332900,2115,3184,1101
0.334100,2010,2998,500
0.335300,1839,2819,1
0.336501,1688,2706,-766
0.337701,1575,2531,-1562
0.338902,1517,2346,-1945
0.340102,1409,2236,-2676
0.341303,1309,2064,-3378
0.342503,1264,1877,-3988
0.343704,1182,1710,-4405
0.344904,1106,1618,-5046
0.346105,1040,1438,-5688
0.347305,1017,1310,-5993
0.348506,989,1162,-6581
0.349706,969,1095,-7087
0.350907,963,1002,-7338
0.352107,955,924,-7809
0.375215,978,904,-8193
0.376416,1018,870,-8477
0.377616,1056,815,-8602
0.378816,1084,554,-8790
0.380017,1099,745,-8926
0.381217,1073,690,-8938
0.382418,1082,652,-8940
0.383618,1070,640,-8849
0.384819,1024,616,-8689
0.386019,1012,613,-8553
0.387220,932,608,-8278
0.388420,868,587,-8010
0.389621,845,607,-7867
0.390821,864,611,-7553
0.392022,933,648,-7206
0.393222,991,716,-6750
0.394423,1001,824,-6561
0.395623,1039,905,-6038
0.396824,1012,1075,-5535
0.398024,1028,1295,-5320
0.375387,1035,1500,-5005
0.376587,1068,1581,-4778
0.377788,1107,1709,-4689
0.378988,1153,1791,-4631
0.380189,1262,1829,-4646
0.381389,1337,1844,-4661
0.382590,1372,1806,-4628
0.383790,1400,1812,-4594
0.384991,1438,1811,-4560
0.386191,1475,1821,-4515
0.387391,1497,1866,-4468
0.388592,1542,1865,-4439
0.389792,1559,1918,-4454
0.390993,1559,1926,-4459
0.392193,1622,1917,-4499
0.393394,1685,1875,-4555
0.394594,1714,1796,-4605
0.395795,1747,1692,-4650
0.396995,1776,1640,-4683
0.398196,1830,1523,-4720
0.420600,1843,1418,-4721
0.421801,1851,1382,-4689
0.423001,1889,1324,-4650
0.424202,1935,1292,-4555
0.425402,1962,1304,-4477
0.426603,2037,1333,-4352
0.427803,2212,1412,-4225
0.429004,2332,1560,-4146
0.430204,2665,1935,-3704
0.431405,2973,1913,-2880
0.432605,3087,2166,-2295
0.433806,3161,2426,-794
0.435006,3107,2520,951
0.436207,2989,2704,2597
0.437407,2940,2830,3495
0.438608,2897,2908,4941
0.439808,2929,3126,6040
0.441009,2975,3408,6506
0.442209,3177,3746,7206
0.443410,3422,3907,7785
0.474550,3620,4177,8303
0.475751,3696,4315,8536
0.476951,3837,4328,8886
0.478151,3856,4274,8888
0.479352,3818,4160,8752
0.480552,3701,4124,8143
0.481753,3595,4144,7187
0.482953,3483,4168,6186
0.484154,3192,4104,5916
0.485354,2852,4015,5238
0.486555,2517,3811,4520
0.487755,2380,3597,4074
0.488956,2146,3472,3023
0.490156,1869,3228,2003
0.491357,1747,2989,992
0.492557,1468,2746,475
0.493758,1246,2627,-537
0.494958,1082,2426,-1588
0.496159,1022,2211,-2068
0.497359,949,1873,-3063
0.534017,897,1951,-4013
0.535218,886,1774,-4460
0.536418,863,1599,-5313
0.537619,851,1507,-6100
0.538819,821,1331,-6826
0.540020,810,1184,-7150
0.541220,794,1104,-7736
0.542421,777,976,-8306
0.543621,764,873,-8804
0.544822,752,818,-9003
0.546022,744,771,-9412
0.547223,747,732,-9725
0.548423,758,690,-9856
0.549623,766,669,-9985
0.550824,770,658,-10091
0.552024,777,636,-10104
0.553225,764,614,-10098
0.554425,748,596,-9989
0.555626,704,552,-9891
0.556826,645,498,-9596
0.534164,571,487,-9164
0.535365,517,467,-8689
0.536565,524,456,-8425
0.537766,571,520,-7931
0.538966,610,559,-7421
0.540167,633,683,-6917
0.541367,639,840,-6627
0.542568,605,956,-6141
0.543768,621,1171,-5831
0.544969,638,1388,-5695
0.546169,752,1456,-5509
0.547370,886,1570,-5438
0.548570,944,1630,-5128
0.549771,1063,1673,-5217
0.550971,1153,1707,-5010
0.552171,1211,1762,-4803
0.553372,1222,1827,-4694
0.554572,1254,1858,-4463
0.555773,1302,1926,-4250
0.556973,1288,2028,-4159
0.586160,1315,2091,-4050
0.587361,1376,2139,-4040
0.588561,1421,2192,-4064
0.589762,1487,2232,-4115
0.590962,1591,2248,-4220
0.592163,1667,2221,-4294
0.593363,1719,2172,-4353
0.594564,1779,2051,-4406
0.595764,1823,1998,-4499
0.596965,1879,1857,-4498
0.598165,1906,1713,-4507
0.599366,1923,1633,-4465
0.600566,1934,1506,-4397
0.601767,1941,1387,-4326
0.602967,1971,1318,-4124
0.604168,2022,1311,-3947
0.605368,2150,1300,-3832
0.606568,2271,1364,-3692
0.607769,2634,1438,-3355
0.608969,3027,1635,-2689
0.637599,3187,1859,-2185
0.638799,3340,2055,-745
0.640000,3267,2136,1071
0.641200,3082,2250,3023
0.642401,2956,2304,3841
0.643601,2848,2365,5470
0.644802,2887,2492,6673
0.646002,2937,2736,7122
0.647203,3065,2985,7901
0.648403,3186,3120,8480
0.649604,3523,3374,8711
0.650804,3393,3640,8988
0.652005,3547,3754,8988
0.653205,3686,3939,8446
0.654406,3760,4057,7965
0.655606,3803,4097,6833
0.656807,3664,4114,5952
0.658007,3553,4018,5332
0.659208,3277,3854,4990
0.660408,2973,3740,4290
0.665548,2707,3509,3510
0.666749,2564,3298,3091
0.667949,2279,2919,2099
0.669150,2024,2972,1126
0.670350,1918,2744,637
0.671551,1731,2531,-392
0.672751,1600,2444,-1424
0.673951,1514,2265,-2409
0.675152,1468,2114,-2872
0.676352,1396,2036,-3791
0.677553,1346,1889,-4672
0.678753,1320,1724,-5078
0.679954,1265,1561,-5777
0.681154,1198,1488,-6442
0.682355,1098,1320,-7037
0.683555,1039,1162,-7395
0.684756,954,1093,-7927
0.685956,913,970,-8474
0.687157,883,893,-8709
0.688357,863,835,-9121
0.715659,848,828,-9473
0.716859,851,815,-9879
0.718060,856,813,-9876
0.719260,872,830,-10051
0.720460,850,854,-10173
0.721661,855,884,-10220
0.722861,824,862,-10257
0.724062,829,844,-10179
0.725262,807,792,-9762
0.726463,734,722,-9398
0.727663,733,689,-8521
0.728864,780,707,-7741
0.730064,813,789,-7364
0.731265,865,857,-6634
0.732465,964,1103,-6026
0.733666,1259,1311,-5759
0.734866,1125,1500,-5267
0.736067,1272,1577,-4847
0.737267,1410,1684,-4476
0.738468,1468,1725,-4286
0.715826,1554,1732,-3982
0.717026,1562,1741,-3667
0.718227,1584,1752,-3487
0.719427,1625,1795,-3200
0.720628,1665,1823,-2957
0.721828,1694,1897,-2733
0.723029,1712,1972,-2669
0.724229,1743,2274,-2568
0.725430,1768,2097,-2542
0.726630,1798,2151,-2570
0.727831,1872,2176,-2630
0.729031,1924,2178,-2726
0.730232,2008,2155,-3053
0.731432,2027,2126,-2933
0.732633,2079,2110,-3048
0.733833,2131,2075,-3197
0.735034,2156,2044,-3251
0.736234,2231,2037,-3337
0.737434,2343,2046,-3381
0.738635,2531,2091,-3120
0.764351,2661,2178,-3146
0.765551,2870,2252,-2675
0.766752,3039,2379,-1971
0.767952,3082,2489,-1527
0.769153,3114,2601,-490
0.770353,3090,2647,532
0.771554,3110,2703,1491
0.772754,3146,2822,1859
0.773955,3256,2894,2717
0.775155,3349,3057,3657
0.776356,3394,3213,4127
0.777556,3444,3244,4908
0.778757,3519,3294,5476
0.779957,3813,3253,5668
0.781158,3565,3132,5922
0.782358,3511,3056,5925
0.783559,3475,3021,5425
0.784759,3475,3085,5002
0.785960,3408,3124,3949
0.787160,3172,3207,3094
0.833048,3032,3207,2708
0.834248,2829,3157,1953
0.835449,2720,3109,1273
0.836649,2691,2998,748
0.837850,2675,2841,488
0.839050,2603,2739,121
0.840251,2474,2516,-210
0.841451,2386,2298,-367
0.842651,2210,2103,-714
0.843852,2070,2007,-1091
0.845052,1917,1847,-1543
0.846253,1878,1722,-1800
0.847453,1773,1667,-2340
0.848654,1696,1557,-2824
0.849854,1673,1492,-3077
0.851055,1632,1440,-3582
0.852255,1655,1408,-4046
0.853456,1664,1352,-4527
0.854656,1653,1295,-4692
0.855857,1670,1247,-5028
0.890053,1645,1179,-5296
0.891254,1608,1113,-5398
0.892454,1549,1070,-5558
0.893655,1464,1038,-5695
0.894855,1374,1005,-5759
0.896056,1329,1020,-5915
0.897256,1280,1020,-6025
0.898457,1191,1050,-6173
0.899657,1177,1099,-6254
0.900858,1100,1155,-6426
0.902058,1035,1176,-6611
0.903259,1002,1250,-6697
0.904459,958,1306,-6878
0.905660,899,1335,-7075
0.906860,837,1377,-7236
0.908061,822,1406,-7350
0.909261,759,1409,-7525
0.910462,717,1443,-7728
0.911662,711,1403,-7840
0.912862,717,1386,-8039
0.890197,748,1370,-8130
0.891398,783,1343,-8014
0.892598,793,1326,-7824
0.893799,805,1323,-7197
0.894999,847,1307,-6496
0.896200,879,1341,-6210
0.897400,934,1378,-5620
0.898601,1005,1429,-5194
0.899801,1077,1511,-4911
0.901002,1134,1551,-4799
0.902202,1206,1575,-4628
0.903403,1326,1613,-4502
0.904603,1375,1623,-4438
0.905804,1403,1645,-4305
0.907004,1412,1648,-4132
0.908205,1417,1705,-3976
0.909405,1437,1757,-3928
0.910606,1445,1773,-3831
0.911806,1458,1836,-3790
0.913007,1452,1892,-3813
0.950026,1463,1967,-3885
0.951227,1471,1977,-4015
0.952427,1518,2010,-4124
0.953628,1541,2025,-4341
0.954828,1611,2018,-4542
0.956029,1645,1994,-4742
0.957229,1657,1949,-4841
0.958430,1682,1882,-5010
0.959630,1705,1836,-5173
0.960831,1726,1739,-5260
0.962031,1732,1642,-5389
0.963232,1769,1600,-5439
0.964432,1811,1532,-5465
0.965632,1847,1462,-5426
0.966833,1895,1439,-5333
0.968033,1943,1380,-5207
0.969234,1961,1341,-5117
0.970434,2076,1364,-4864
0.971635,2231,1378,-4573
0.972835,2466,1421,-4088
0.950216,2586,1543,-3745
0.951417,2837,1605,-2830
0.952617,2971,1752,-1569
0.953818,2984,1858,-813
0.955018,2943,1972,898
0.956219,2842,2059,2567
0.957419,2774,2178,4131
0.958620,2785,2319,4816
0.959820,2890,2437,5971
0.961021,3104,2700,6955
0.962221,3209,3059,7451
0.963422,3414,3384,8369
0.964622,3584,3523,9110
0.965823,3729,3736,9701
0.967023,3776,3811,9929
0.968223,3838,3803,10160
0.969424,3851,3779,9960
0.970624,3847,3884,9660
0.971825,3775,4091,8631
0.973025,3587,4188,7390
1.016033,3269,4327,6426
1.017234,3083,4325,6174
1.018434,2756,4205,5505
1.019635,2470,4117,4651
1.020835,2351,3948,4118
1.022036,2069,3715,3102
1.023236,1800,3585,2191
1.024437,1664,3345,1205
1.025637,1437,3126,728
1.026838,1209,3003,-266
1.028038,1016,2815,-1248
1.029239,956,2622,-1735
1.030439,824,2539,-2706
1.031640,685,2376,-3657
1.032840,653,2207,-4378
1.034041,561,2051,-5026
1.035241,496,1968,-5923
1.036442,437,1780,-6709
1.037642,422,1607,-7104
1.038843,391,1526,-7868
1.043956,346,1352,-8547
1.045157,335,1202,-8893
1.046357,329,1057,-9494
1.047558,352,1005,-10035
1.048758,378,871,-10542
1.049959,419,754,-10752
1.051159,477,693,-11070
1.052360,510,588,-11246
1.053560,501,459,-11309
1.054761,503,332,-11356
1.055961,463,269,-11308
1.057162,430,119,-11174
1.058362,403,-44,-11049
1.059563,352,-138,-10626
1.060763,328,-291,-10039
1.061964,366,-372,-9689
1.063164,457,-332,-9026
1.064365,584,-289,-8329
1.065565,618,-139,-7430
1.066766,633,149,-7178
1.101226,726,316,-6543
1.102426,812,682,-5964
1.103627,853,971,-5723
1.104827,921,1258,-5212
1.106027,1034,1381,-4816
1.107228,1145,1566,-4383
1.108428,1215,1696,-4377
1.109629,1317,1732,-4124
1.110829,1343,1778,-3845
1.112030,1343,1842,-3719
1.113230,1335,1889,-3432
1.114431,1328,1936,-3214
1.115631,1343,2035,-3141
1.116832,1372,2123,-3042
1.118032,1390,2148,-3031
1.119233,1427,2207,-3102
1.120433,1457,2233,-3139
1.121634,1546,2266,-3243
1.122834,1668,2229,-3417
1.124035,1989,2167,-3776
1.150746,1837,2065,-3698
1.151947,1882,2011,-3803
1.153147,1864,1926,-3819
1.154348,1873,1857,-3818
1.155548,1875,1555,-3753
1.156749,1938,1771,-3628
1.157949,1978,1730,-3541
1.159150,2121,1699,-3327
1.160350,2233,1676,-3065
1.161550,2344,1675,-2860
1.162751,2411,1660,-2740
1.163951,2527,1679,-2527
1.165152,2674,1757,-2254
1.166352,2774,1903,-2056
1.167553,2977,2105,-1463
1.168753,3180,2229,-582
1.169954,3294,2535,539
1.171154,3326,2743,1129
1.172355,3423,2869,2210
1.173555,3578,3088,3197
1.182744,3607,3248,3644
1.183945,3666,3364,4329
1.185145,3648,3364,4850
1.186346,3617,3429,5336
1.187546,3609,3561,5433
1.188747,3462,3584,5665
1.189947,3363,3619,5773
1.191148,3289,3634,5781
1.192348,3163,3633,5625
1.193549,3119,3604,4904
1.194749,3154,3567,3823
1.195950,3154,3467,3192
1.197150,3051,3380,2230
1.198351,2860,3197,1364
1.199551,2744,2956,949
1.200751,2610,2566,87
1.201952,2487,2655,-754
1.203152,2411,2496,-1693
1.204353,2311,2359,-1972
1.205553,2244,2294,-2730
1.227996,2177,2221,-3392
1.229196,2183,2110,-3706
1.230397,2165,2090,-4250
1.231597,2186,2017,-4728
1.232798,2190,1922,-4949
1.233998,2230,1840,-5284
1.235199,2266,1781,-5559
1.236399,2300,1639,-5747
1.237600,2304,1462,-5831
1.238800,2314,1372,-5865
1.240001,2294,1200,-5743
1.241201,2303,1040,-5628
1.242402,2292,877,-5352
1.243602,2275,805,-4961
1.244803,2269,716,-4581
1.246003,2260,668,-4439
1.247204,2265,651,-4223
1.248404,2292,674,-4083
1.249605,2285,751,-4036
1.250805,2275,834,-3971
1.228162,2200,859,-3938
1.229362,2104,933,-3961
1.230563,2059,978,-4035
1.231763,1958,1001,-4142
1.232963,1896,1051,-4239
1.234164,1873,1100,-4262
1.235364,1853,1150,-4282
1.236565,1840,1176,-4262
1.237765,1824,1239,-4237
1.238966,1848,1314,-4150
1.240166,1823,1364,-4060
1.241367,1821,1480,-3892
1.242567,1837,1567,-3795
1.243768,1934,1688,-3525
1.244968,2096,1752,-3196
1.246169,2152,1877,-3025
1.247369,2264,1998,-2703
1.248570,2361,2058,-2430
1.249770,2417,2164,-2167
1.250971,2426,2272,-2060
1.279934,2433,2391,-1880
1.281134,2481,2444,-1836
1.282335,2502,2520,-1824
1.283535,2622,2654,-1825
1.284736,2754,2726,-1735
1.285936,2854,2890,-1541
1.287137,2923,3044,-1414
1.288337,2976,3101,-1097
1.289538,3000,3152,-833
1.290738,3002,3177,-743
1.291939,2973,3149,-650
1.293139,2930,3122,-752
1.294340,2953,3059,-978
1.295540,2953,2990,-1089
1.296741,2947,2957,-1307
1.297941,2880,2843,-1527
1.299142,2835,2689,-1640
1.300342,2697,2460,-1886
1.301542,2526,2367,-2130
1.302743,2409,2184,-2545
1.307388,2356,2025,-2666
1.308588,2270,1907,-3033
1.309789,2186,1708,-3402
1.310989,2176,1503,-3567
1.312190,2179,1288,-3898
1.313390,2199,1186,-4164
1.314591,2228,949,-4276
1.315791,2267,704,-4421
1.316992,2309,612,-4511
1.318192,2351,412,-4521
1.319393,2360,226,-4492
1.320593,2389,79,-4419
1.321794,2396,7,-4241
1.322994,2394,-95,-3867
1.324195,2396,-165,-3902
1.325395,2405,-164,-3674
1.326596,2382,-135,-3476
1.327796,2375,-23,-3378
1.328997,2355,51,-3197
1.330197,2367,258,-3043
1.357970,2375,534,-2981
1.359170,2402,760,-2888
1.360371,2441,887,-2812
1.361571,2467,1109,-2757
1.362772,2500,1267,-2746
1.363972,2525,1361,-2755
1.365173,2560,1402,-2763
1.366373,2557,1500,-2735
1.367574,2562,1607,-2673
1.368774,2591,1665,-2638
1.369974,2597,1770,-2623
1.371175,2602,1872,-2623
1.372375,2597,1939,-2679
1.373576,2722,2103,-2746
1.374776,2821,2340,-2681
1.375977,3061,2684,-2191
1.377177,3366,2881,-1213
1.378378,3683,3280,30
1.379578,3843,3569,694
1.380779,4081,3668,1939
1.406670,4188,3687,2985
1.407871,4207,3685,3443
1.409071,4250,3760,4198
1.410272,4273,3847,5135
1.411472,4315,4168,6233
1.412673,4344,4634,7087
1.413873,4280,4870,8598
1.415074,3955,5285,10039
1.416274,3719,5619,10748
1.417475,3094,5850,11902
1.418675,2412,5909,12542
1.419875,1731,5990,12047
1.421076,1433,6117,11622
1.422276,1040,6126,9433
1.423477,497,6112,7386
1.424677,253,6207,6725
1.425878,-610,5713,5740
1.427078,-1331,5606,4374
1.428279,-1910,5324,2859
1.429479,-2244,4881,2216
1.432768,-2793,4637,678
1.433968,-3245,4147,-1182
1.435169,-3431,3705,-2100
1.436369,-3721,3210,-3902
1.437570,-4007,3000,-5611
1.438770,-4079,2510,-6425
1.439971,-4062,2071,-8123
1.441171,-4055,1802,-9725
1.442372,-4079,1289,-11114
1.443572,-4049,717,-11736
1.444773,-3865,235,-12903
1.445973,-3810,-99,-14064
1.447174,-3753,-525,-15157
1.448374,-3533,-1077,-15550
1.449575,-3282,-1368,-16257
1.450775,-3042,-1759,-16770
1.451976,-2903,-2278,-16982
1.453176,-2621,-2727,-17344
1.454377,-2406,-2983,-17768
1.455577,-2209,-3350,-17916
1.486719,-2020,-3827,-17602
1.487920,-1895,-4046,-17462
1.489120,-1806,-4550,-17354
1.490321,-1796,-5140,-17104
1.491521,-1615,-5327,-16722
1.492722,-1452,-5719,-15884
1.493922,-1383,-5855,-15394
1.495123,-1144,-5694,-14247
1.496323,-936,-5595,-12858
1.497524,-832,-5465,-11988
1.498724,-780,-5269,-11594
1.499925,-701,-5149,-10835
1.501125,-647,-4829,-9779
1.502326,-658,-4496,-9307
1.503526,-705,-4124,-8352
1.504727,-884,-3959,-7347
1.505927,-1034,-3653,-6644
1.507128,-1309,-3276,-6108
1.508328,-1467,-3086,-5485
1.509529,-1552,-2703,-5068
1.535133,-1522,-2289,-4919
1.536333,-1454,-1839,-4712
1.537534,-1409,-1732,-4636
1.538734,-1332,-1294,-4676
1.539934,-1232,-918,-4787
1.541135,-1120,-754,-5002
1.542335,-1017,-398,-5255
1.543536,-932,-71,-5383
1.544736,-751,85,-5637
1.545937,-581,375,-5674
1.547137,-494,693,-5631
1.548338,-356,985,-5375
1.549538,-264,1126,-5015
1.550739,-240,1432,-4508
1.551939,-203,1756,-4248
1.553140,71,2156,-3875
1.554340,626,2213,-3552
1.555541,980,2599,-3305
1.556741,1685,3159,-2401
1.557942,2066,3502,-710
1.535247,1991,4347,1958
1.536447,1812,5269,3599
1.537648,1387,5731,7374
1.538848,1319,6517,10655
1.540049,1430,7298,11931
1.541249,1649,7912,13936
1.542450,1843,8205,15474
1.543650,2124,8828,16669
1.544851,2335,9469,17308
1.546051,2750,9787,18096
1.547252,3092,10309,18397
1.548452,3163,10696,18407
1.549653,3283,11112,17818
1.550853,3412,11187,16045
1.552054,3151,10863,13585
1.553254,2899,10549,12527
1.554455,2364,10232,11070
1.555655,1615,9405,9998
1.556856,1239,8639,9299
1.558056,678,8109,7554
1.605362,-341,7436,5994
1.606562,-1258,6326,4325
1.607763,-1369,5439,3382
1.608963,-1974,5005,1490
1.610164,-2485,4126,-308
1.611364,-2727,3296,-1153
1.612565,-2990,2659,-2903
1.613765,-2988,2249,-4626
1.614966,-2908,1655,-5480
1.616166,-2723,1091,-7076
1.617367,-2572,794,-8400
1.618567,-2507,195,-9584
1.619768,-2440,-418,-10069
1.620968,-2355,-955,-11005
1.622168,-2273,-1287,-11935
1.623369,-2240,-1864,-12344
1.624569,-2186,-2402,-13100
1.625770,-2160,-2646,-13787
1.626970,-2064,-3089,-14432
1.628171,-1984,-3506,-14749
1.656034,-1762,-3674,-15408
1.657234,-1487,-3999,-16015
1.658435,-1330,-4294,-16244
1.659635,-1062,-4492,-16661
1.660836,-880,-4595,-16894
1.662036,-755,-4766,-16949
1.663237,-718,-4937,-17006
1.664437,-666,-4999,-16869
1.665638,-723,-5168,-16196
1.666838,-782,-5119,-15582
1.668039,-845,-4823,-14027
1.669239,-772,-4592,-12579
1.670440,-689,-3996,-11479
1.671640,-578,-3464,-11058
1.672840,-559,-3237,-10125
1.674041,-623,-2826,-9257
1.675241,-623,-2399,-8896
1.676442,-732,-2015,-8155
1.677642,-871,-1837,-7397
1.678843,-945,-1435,-6801
1.656189,-1087,-1056,-6452
1.657389,-1214,-874,-5991
1.658590,-1272,-500,-5664
1.659790,-1271,-163,-5630
1.660991,-1228,15,-5520
1.662191,-1163,305,-5550
1.663392,-1130,608,-5575
1.664592,-1005,864,-5609
1.665793,-853,959,-5682
1.666993,-666,1155,-5739
1.668194,-536,1332,-5795
1.669394,-321,1397,-5827
1.670595,-93,1535,-5692
1.671795,242,1586,-5546
1.672996,84,1794,-5061
1.674196,388,1936,-4462
1.675397,457,2162,-3544
1.676597,459,2363,-3035
1.677798,565,2773,-2168
1.678998,897,2828,-1437
1.703360,1138,3123,-1057
1.704561,1708,3420,-190
1.705761,2268,3643,1013
1.706962,2535,4001,2592
1.708162,2542,4450,3791
1.709363,2392,4681,6181
1.710563,2223,5256,8643
1.711764,2205,5764,9749
1.712964,2266,6130,11551
1.714165,2391,6320,12806
1.715365,2629,6654,13663
1.716566,2776,7020,13991
1.717766,3045,7213,14434
1.718967,3248,7602,14490
1.720167,3341,7982,14258
1.721368,3546,8205,12933
1.722568,3571,8149,10712
1.723768,3171,8022,8573
1.724969,3086,7683,8026
1.726169,2614,7389,6920
1.770254,2150,6779,5528
1.771454,1907,6175,4759
1.772655,1417,5376,3403
1.773855,892,5222,2121
1.775056,373,4603,656
1.776256,200,4089,-154
1.777457,-65,3831,-1721
1.778657,-298,3194,-3134
1.779858,-350,2666,-3868
1.781058,-382,2164,-5299
1.782259,-440,1933,-6591
1.783459,-450,1479,-7152
1.784660,-386,1030,-8223
1.785860,-335,825,-9301
1.787061,-203,406,-10186
1.788261,-131,22,-10530
1.789462,-1,-435,-11104
1.790662,137,-559,-11620
1.791863,200,-955,-11843
1.793063,281,-1324,-12191
1.821271,320,-1525,-12355
1.822472,356,-1882,-12419
1.823672,385,-2208,-12449
1.824873,374,-2353,-12437
1.826073,329,-2647,-12273
1.827273,308,-2890,-12119
1.828474,261,-3012,-11685
1.829674,232,-3051,-11049
1.830875,258,-3043,-10149
1.832075,304,-2893,-9861
1.833276,423,-2815,-9102
1.834476,599,-2618,-8448
1.835677,671,-2337,-8158
1.836877,791,-1995,-7526
1.838078,793,-1826,-6737
1.839278,810,-1419,-6120
1.840479,753,-1014,-5778
1.841679,755,-829,-5263
1.842880,680,-559,-4909
1.844080,652,-367,-4813
1.869003,586,-30,-4692
1.870203,526,-112,-4631
1.871404,528,80,-4852
1.872604,546,315,-4648
1.873805,601,440,-4641
1.875005,661,686,-4627
1.876206,710,924,-4613
1.877406,755,1038,-4610
1.878607,808,1233,-4616
1.879807,826,1371,-4626
1.881008,892,1436,-4624
1.882208,992,1454,-4606
1.883409,1118,1466,-4597
1.884609,1151,1452,-4599
1.885809,1239,1447,-4568
1.887010,1363,1432,-4517
1.888210,1414,1422,-4457
1.889411,1535,1410,-4325
1.890611,1708,1435,-4186
1.891812,2007,1496,-4016
1.869113,2181,1594,-3896
1.870313,2595,1647,-3496
1.871514,2976,1855,-2826
1.872714,3128,2136,-2330
1.873915,3288,2450,-980
1.875115,3204,2639,872
1.876316,2985,3030,2969
1.877516,2903,3496,4016
1.878717,2907,3708,5680
1.879917,2951,4030,6940
1.881117,2968,4356,7443
1.882318,3055,4783,8293
1.883518,3210,5010,8963
1.884719,3577,5436,9530
1.885919,3450,5835,9807
1.887120,3508,6041,10150
1.888320,3504,6406,10115
1.889521,3481,6752,9854
1.890721,3455,6852,8709
1.891922,3354,6860,7181
1.896719,2868,6639,5995
1.897920,2716,6300,5484
1.899120,2254,6068,4693
1.900321,1825,5639,3705
1.901521,1633,5153,3118
1.902722,1209,4630,2034
1.903922,853,4384,1006
1.905123,696,3886,467
1.906323,435,3394,-662
1.907524,232,3145,-1827
1.908724,108,2656,-2914
1.909925,75,2225,-3486
1.911125,5,1739,-4509
1.912326,0,1561,-5482
1.913526,-48,1154,-5937
1.914727,-89,739,-6807
1.915927,-125,541,-7628
1.917128,-152,172,-8336
1.918328,-181,-163,-8688
1.919529,-182,-322,-9373
1.944083,-165,-616,-9964
1.945283,-151,-868,-10219
1.946484,-123,-1118,-10731
1.947684,-68,-1211,-11163
1.948885,-37,-1384,-11624
1.950085,-25,-1537,-11718
1.951286,20,-1581,-11976
1.952486,45,-1709,-12149
1.953687,38,-1804,-12202
1.954887,25,-1920,-12262
1.956088,24,-1966,-12292
1.957288,-26,-2101,-12049
1.958489,-64,-2252,-12115
1.959689,-138,-2299,-11476
1.960890,-198,-2238,-10514
1.962090,-182,-2023,-10118
1.963290,-75,-1749,-9445
1.964491,85,-1590,-8824
1.965691,170,-1271,-8318
1.966892,292,-1024,-8126
1.989319,325,-927,-7673
1.990520,391,-713,-7217
1.991720,419,-449,-6931
1.992920,472,-60,-6370
1.994121,479,-54,-5840
1.995321,473,243,-5583
1.996522,452,508,-5165
1.997722,441,630,-4829
1.998923,463,835,-4546
2.000123,492,1029,-4458
2.001324,565,1114,-4336
2.002524,659,1240,-4293
2.003725,712,1358,-4255
2.004925,807,1451,-4249
2.006126,942,1496,-4242
2.007326,1081,1565,-4278
2.008527,1161,1630,-4270
2.009727,1330,1663,-4183
2.010928,1481,1720,-4041
2.012128,1588,1787,-3986
2.035569,1879,1872,-3887
2.036769,2384,1948,-3736
2.037970,3008,2112,-3266
2.039170,3250,2367,-2775
2.040371,3495,2517,-1334
2.041571,3313,2807,853
2.042771,3080,3137,2162
2.043972,2635,3562,4842
2.045172,2571,3742,6883
2.046373,2648,3990,8423
2.047573,2703,4299,8628
2.048774,3003,4485,9381
2.049974,3453,4929,10218
2.051175,3719,5310,10649
2.052375,3973,5574,11711
2.053576,3947,5788,12902
2.054776,3917,6219,14044
2.055977,3796,6595,14425
2.057177,3584,6750,14736
2.058378,3277,7054,14200
2.081349,3206,7291,13524
2.082549,2626,7098,11692
2.083750,1909,6963,9937
2.084950,1008,6655,9146
2.086151,624,6264,8512
2.087351,-181,6051,7150
2.088552,-888,5578,5537
2.089752,-1180,5054,4823
2.090953,-1748,4526,3325
2.092153,-2175,4232,1643
2.093354,-2648,3663,725
2.094554,-2750,3199,-1102
2.095754,-2971,2961,-2795
2.096955,-3141,2526,-4327
2.098155,-3215,2050,-5101
2.099356,-3393,1538,-6622
2.100556,-3522,1280,-8146
2.101757,-3564,812,-8890
2.102957,-3606,346,-10421
2.104158,-3470,123,-11848
2.130081,-3346,-364,-13208
2.131281,-3267,-842,-13867
2.132482,-3098,-1074,-15082
2.133682,-2882,-1510,-16172
2.134883,-2726,-1875,-16662
2.136083,-2413,-2258,-17503
2.137284,-2128,-2373,-18264
2.138484,-1938,-2716,-18841
2.139685,-1863,-3026,-18979
2.140885,-1708,-3152,-19245
2.142086,-1551,-3401,-19493
2.143286,-1505,-3717,-19556
2.144487,-1404,-3980,-19357
2.145687,-1454,-4070,-18432
2.146888,-1561,-4066,-16653
2.148088,-1502,-3884,-15978
2.149289,-1290,-3766,-14590
2.150489,-1154,-3454,-13515
2.151689,-1148,-3099,-13042
2.152890,-1151,-2680,-11899
2.130253,-1188,-2622,-10828
2.131454,-1207,-2270,-9887
2.132654,-1264,-1950,-9531
2.133855,-1350,-1796,-8721
2.135055,-1482,-1407,-7942
2.136256,-1533,-1056,-7611
2.137456,-1632,-586,-6975
2.138657,-1700,-474,-6423
2.139857,-1702,-120,-6130
2.141058,-1709,240,-5787
2.142258,-1660,415,-5511
2.143459,-1559,738,-5263
2.144659,-1498,998,-5129
2.145860,-1366,1106,-4900
2.147060,-1208,1314,-4639
2.148261,-1125,1500,-4504
2.149461,-1033,1636,-4209
2.150662,-859,1685,-4055
2.151862,-462,1773,-4036
2.153063,-165,1880,-4053
2.182506,582,1923,-3889
2.183707,1301,2066,-3363
2.184907,1550,2243,-2818
2.186107,1692,2456,-1245
2.187308,1435,2583,985
2.188508,1020,2825,3524
2.189709,793,3043,4750
2.190909,541,3157,6950
2.192110,635,3433,8728
2.193310,789,3822,9475
2.194511,1241,4240,10716
2.195711,1736,4469,11787
2.196912,2229,4995,12790
2.198112,2467,5554,13228
2.199313,2910,5811,14068
2.200513,3226,6273,14572
2.201714,3364,6628,14660
2.202914,3519,6866,14567
2.204115,3586,6950,13773
2.205315,3647,7072,12273
2.209065,3643,6983,11181
2.210266,3461,6958,9637
2.211466,3195,6764,8796
2.212667,3019,6371,8471
2.213867,2612,6037,7573
2.215068,2221,5905,6363
2.216268,1629,5404,5892
2.217469,1390,4930,4875
2.218669,831,4689,3761
2.219870,257,4243,2467
2.221070,31,3783,1813
2.222270,-374,3277,495
2.223471,-640,3084,-858
2.224671,-995,2701,-1570
2.225872,-880,2281,-2965
2.227072,-985,2082,-4252
2.228273,-1026,1664,-5478
2.229473,-1056,1315,-6079
2.230674,-1069,895,-7253
2.231874,-1045,795,-8219
2.258116,-1047,488,-8681
2.259316,-1007,210,-9543
2.260517,-969,94,-10313
2.261717,-956,-211,-10973
2.262918,-952,-436,-11322
2.264118,-917,-564,-11995
2.265319,-863,-821,-12592
2.266519,-811,-1074,-12889
2.267720,-748,-1275,-13409
2.268920,-672,-1367,-13880
2.270121,-599,-1535,-14325
2.271321,-579,-1717,-14329
2.272522,-542,-1795,-14583
2.273722,-504,-1908,-14789
2.274923,-463,-2094,-14876
2.276123,-381,-2240,-14884
2.277324,-369,-2319,-14416
2.278524,-420,-2348,-13105
2.279724,-474,-2233,-12448
2.280925,-384,-2126,-11286
2.302171,-220,-1833,-10397
2.303371,-165,-1494,-10031
2.304572,-169,-1114,-9269
2.305772,-261,-1140,-8520
2.306973,-323,-867,-7952
2.308173,-447,-617,-7644
2.309374,-570,-492,-7100
2.310574,-679,-192,-6780
2.311775,-711,133,-6673
2.312975,-768,281,-6496
2.314176,-774,572,-6397
2.315376,-765,873,-6349
2.316577,-710,1168,-6335
2.317777,-622,1276,-6422
2.318978,-476,1494,-6461
2.320178,-415,1673,-6451
2.321379,-268,1995,-6453
2.322579,-143,1850,-6442
2.323779,-80,1921,-6409
2.324980,3,1915,-6315
2.350811,78,1911,-6100
2.352011,161,1918,-5796
2.353212,220,1913,-5572
2.354412,349,1919,-5163
2.355613,483,1890,-4706
2.356813,563,1860,-4525
2.358014,928,1846,-4248
2.359214,1496,1881,-3929
2.360415,2077,1922,-3134
2.361615,2288,1943,-2653
2.362815,2344,1960,-902
2.364016,2091,2041,1377
2.365216,1923,2178,2601
2.366417,1615,2396,5128
2.367617,1539,2554,7376
2.368818,1595,2874,9123
2.370018,1851,3168,9968
2.371219,2222,3342,11196
2.372419,2623,3752,12320
2.373620,2830,4157,12857
2.398155,3147,4476,14010
2.399356,3431,4624,14696
2.400556,3808,4885,15296
2.401757,3681,5237,15545
2.402957,3734,5456,15775
2.404158,3672,5940,15076
2.405358,3627,6442,14318
2.406559,3430,6564,12536
2.407759,2826,6688,11132
2.408960,2091,6679,10635
2.410160,2052,6557,9727
2.411361,1539,6445,8421
2.412561,1187,6180,6977
2.413762,1001,5896,6316
2.414962,631,5507,5112
2.416162,250,5391,4120
2.417363,-230,5028,3642
2.418563,-373,4666,2623
2.419764,-845,4498,1644
2.420964,-1246,4077,731
2.447644,-1475,3628,259
2.448845,-1852,3114,-760
2.450045,-2186,2975,-1914
2.451245,-2371,2496,-2447
2.452446,-2668,2066,-3476
2.453646,-2938,1877,-4611
2.454847,-3190,1455,-5744
2.456047,-3261,1081,-6318
2.457248,-3340,914,-7513
2.458448,-3221,638,-8688
2.459649,-3235,317,-9281
2.460849,-3276,-14,-10303
2.462050,-3238,-143,-11384
2.463250,-3041,-349,-12417
2.464451,-2981,-675,-12948
2.465651,-2900,-839,-13840
2.466852,-2773,-1152,-14748
2.468052,-2691,-1448,-15209
2.469253,-2462,-1745,-15975
2.470453,-2202,-1897,-16575
2.447790,-1806,-2141,-17106
2.448990,-1848,-2385,-17240
2.450191,-1707,-2478,-17437
2.451391,-1623,-2700,-17440
2.452592,-1614,-2900,-17396
2.453792,-1604,-3266,-17218
2.454993,-1630,-3289,-16826
2.456193,-1636,-3490,-16424
2.457394,-1610,-3428,-15213
2.458594,-1419,-3307,-13796
2.459795,-1279,-2979,-12590
2.460995,-1209,-2500,-12101
2.462195,-1059,-2289,-11177
2.463396,-960,-1857,-10134
2.464596,-931,-1461,-9666
2.465797,-916,-1097,-8863
2.466997,-959,-946,-8055
2.468198,-1111,-619,-7214
2.469398,-1186,-307,-6877
2.470599,-1372,127,-6326
2.496823,-1531,193,-5902
2.498024,-1589,507,-5751
2.499224,-1670,822,-5519
2.500425,-1659,967,-5483
2.501625,-1585,1296,-5528
2.502826,-1530,1584,-5579
2.504026,-1391,1730,-5747
2.505227,-1262,2007,-5990
2.506427,-1191,2257,-6104
2.507628,-1015,2488,-6276
2.508828,-836,2583,-6306
2.510029,-594,2766,-6309
2.511229,-586,2776,-6266
2.512429,-567,2765,-6125
2.513630,-515,2712,-5944
2.514830,-459,2588,-5842
2.516031,-291,2381,-5721
2.517231,-36,2265,-5674
2.518432,459,2116,-5394
2.519632,871,2018,-5506
2.545529,1637,2022,-4979
2.546730,2060,1968,-3771
2.547930,2072,1908,-2863
2.549131,1764,1888,-639
2.550331,1341,1874,1887
2.551532,1195,1899,4436
2.552732,929,1888,5596
2.553933,877,1909,7722
2.555133,1091,2077,9563
2.556334,1275,2362,10453
2.557534,1635,2810,12180
2.558735,2112,2993,13700
2.559935,2970,3461,14316
2.561136,3147,3794,15401
2.562336,3436,3848,16397
2.563537,3517,4025,17372
2.564737,3575,4445,17743
2.565938,3666,4944,18047
2.567138,3655,5299,17540
2.568339,3648,6002,16879
2.592160,3489,6306,15083
2.593360,3065,6513,13273
2.594561,2484,6650,12140
2.595761,2249,6569,11707
2.596962,1543,6202,10769
2.598162,902,6286,9482
2.599363,558,6068,8737
2.600563,-35,5826,7309
2.601764,-671,5660,5938
2.602964,-1296,5281,4438
2.604165,-1571,4917,3694
2.605365,-2109,4712,2032
2.606566,-2523,4311,447
2.607766,-2711,3912,-320
2.608966,-3035,3496,-1860
2.610167,-3242,3290,-3437
2.611367,-3336,2917,-4963
2.612568,-3394,2463,-5678
2.613768,-3565,2228,-6996
2.614969,-3785,1823,-8454
2.638596,-3866,1403,-9170
2.639796,-3943,1074,-10487
2.640997,-3687,871,-11646
2.642197,-3621,436,-13013
2.643398,-3597,-4,-13549
2.644598,-3417,-183,-14661
2.645799,-3074,-468,-15478
2.646999,-2984,-903,-15892
2.648200,-2863,-1099,-16625
2.649400,-2689,-1430,-17339
2.650601,-2352,-1785,-17956
2.651801,-2398,-2128,-18266
2.653002,-2156,-2295,-18672
2.654202,-1938,-2667,-18934
2.655403,-1877,-3024,-19012
2.656603,-1764,-3461,-18985
2.657803,-1721,-3595,-18714
2.659004,-1737,-3953,-18349
2.660204,-1818,-4051,-17084
2.661405,-1754,-3980,-15500
2.687572,-1503,-3698,-14176
2.688773,-1389,-3363,-13666
2.689973,-1285,-2923,-12764
2.691174,-1372,-2798,-11598
2.692374,-1421,-2404,-11053
2.693575,-1522,-2019,-10161
2.694775,-1729,-1817,-9359
2.695976,-1923,-1436,-8704
2.697176,-1998,-995,-8317
2.698377,-2045,-770,-7817
2.699577,-2141,-300,-7337
2.700778,-2178,133,-7070
2.701978,-2142,636,-6765
2.703179,-2109,883,-6566
2.704379,-1977,1327,-6468
2.705580,-1847,1786,-6407
2.706780,-1676,1924,-6244
2.707981,-1509,2191,-6139
2.709181,-1440,2347,-6093
2.710382,-1260,2471,-5986
2.687757,-1082,2509,-5866
2.688957,-997,2471,-5787
2.690158,-711,2419,-5603
2.691358,-424,2372,-5284
2.692559,-23,2336,-4917
2.693759,179,2328,-4691
2.694960,655,2307,-4119
2.696160,983,2353,-3102
2.697361,1055,2312,-1335
2.698561,1023,2314,-637
2.699762,940,2331,1277
2.700962,896,2418,3417
2.702163,835,2528,4560
2.703363,791,2631,7043
2.704564,893,2912,9518
2.705764,1024,3289,10685
2.706965,1420,3748,12773
2.708165,1933,3978,14389
2.709366,2539,4349,15705
2.710566,2805,4700,16290
2.687853,3219,5072,17418
2.689053,3542,5130,18382
2.690254,3683,5547,18818
2.691454,3815,5953,19359
2.692655,3772,6161,19160
2.693855,3686,6739,17762
2.695056,3606,6953,16671
2.696256,2947,6963,14527
2.697457,2387,7083,12945
2.698657,2064,6740,12443
2.699858,1270,6305,11317
2.701058,499,6121,9624
2.702259,-271,5678,7721
2.703459,-615,5187,7084
2.704660,-1300,4927,5372
2.705860,-1913,4374,3467
2.707061,-2160,3954,2412
2.708261,-2540,3488,502
2.709462,-2827,3245,-1274
2.710662,-2915,2876,-2876
2.743221,-3095,2457,-3756
2.744421,-3258,1987,-5323
2.745622,-3377,1777,-6815
2.746822,-3377,1383,-7605
2.748022,-3430,907,-8948
2.749223,-3420,778,-10257
2.750423,-3394,422,-11407
2.751624,-3328,10,-12154
2.752824,-3343,-228,-13374
2.754025,-3212,-556,-14533
2.755225,-3029,-833,-15070
2.756426,-2751,-1260,-16073
2.757626,-2514,-1333,-17036
2.758827,-2152,-1656,-17475
2.760027,-2144,-1904,-18265
2.761228,-1862,-2018,-18851
2.762428,-1632,-2256,-19191
2.763629,-1525,-2454,-19333
2.764829,-1328,-2809,-19525
2.766030,-1191,-2764,-19511
2.794809,-1165,-3041,-19344
2.796009,-1258,-3256,-18370
2.797210,-1429,-3252,-16605
2.798410,-1245,-3079,-14830
2.799611,-1117,-2720,-14160
2.800811,-941,-2525,-13045
2.802012,-932,-2196,-11885
2.803212,-994,-1881,-11303
2.804413,-1111,-1578,-10278
2.805613,-1232,-1451,-9487
2.806814,-1408,-1181,-8837
2.808014,-1482,-847,-8363
2.809215,-1641,-666,-7694
2.810415,-1728,-286,-7077
2.811616,-1764,127,-6780
2.812816,-1777,578,-6293
2.814017,-1716,782,-5901
2.815217,-1600,1172,-5488
2.816418,-1519,1535,-5522
2.817618,-1357,1687,-5265
2.822914,-1164,1932,-5010
2.824115,-1087,2144,-4889
2.825315,-945,2304,-4646
2.826516,-828,2380,-4434
2.827716,-757,2459,-4299
2.828917,-636,2557,-4040
2.830117,-498,2609,-3722
2.831318,-321,2640,-3411
2.832518,-212,2670,-3330
2.833719,38,2682,-2997
2.834919,413,2716,-2606
2.836120,891,2717,-2366
2.837320,938,2650,-1786
2.838521,1226,2643,-1114
2.839721,1417,2591,-179
2.840922,1489,2532,320
2.842122,1587,2516,1484
2.843322,1673,2481,2597
2.844523,1747,2516,3189
2.845723,1861,2561,4330
2.915259,2029,2593,5604
2.916459,2170,2719,7012
2.917660,2262,2955,7788
2.918860,2511,3359,9308
2.920061,2833,3527,10631
2.921261,2964,3811,11242
2.922462,3172,4048,12207
2.923662,3396,4180,12759
2.924863,3628,4429,12993
2.926063,3716,4636,13079
2.927264,3805,4768,13263
2.928464,3861,5144,13090
2.929665,3905,5618,12852
2.930865,3936,5977,12151
2.932066,3742,6106,11414
2.933266,3310,6284,10881
2.934466,3049,6281,10614
2.935667,2477,6251,10042
2.936867,1862,6064,9231
2.938068,1561,5820,8724
2.915389,955,5544,7617
2.916590,452,5385,6493
2.917790,-62,5096,5169
2.918991,-239,4755,4729
2.920191,-644,4562,3537
2.921392,-983,4233,2470
2.922592,-1146,3875,2022
2.923793,-1545,3411,1130
2.924993,-1975,3278,129
2.926194,-2442,2854,-927
2.927394,-2609,2396,-1482
2.928595,-3065,2195,-2573
2.929795,-3553,1760,-3687
2.930996,-3757,1386,-4271
2.932196,-4134,963,-5459
2.933397,-4405,845,-6816
2.934597,-4485,471,-7545
2.935798,-4577,83,-9079
2.936998,-4533,-77,-10615
2.938198,-4372,-397,-12002
2.963798,-4265,-653,-12677
2.964999,-3925,-1024,-13949
2.966199,-3526,-1017,-15127
2.967400,-3387,-1274,-15632
2.968600,-3058,-1421,-16499
2.969801,-2712,-1523,-17177
2.971001,-2424,-1713,-17819
2.972202,-2267,-1921,-18077
2.973402,-1992,-2027,-18460
2.974603,-1752,-2252,-18650
2.975803,-1649,-2503,-18679
2.977004,-1529,-2748,-18550
2.978204,-1491,-2885,-18109
2.979405,-1551,-3148,-17194
2.980605,-1607,-3332,-16589
2.981806,-1465,-3380,-15205
2.983006,-1271,-3378,-13840
2.984207,-1181,-3104,-13164
2.985407,-1118,-2685,-11829
2.986608,-1175,-2476,-10541
3.012890,-1148,-2024,-9720
3.014090,-1125,-1667,-9055
3.015291,-1062,-1493,-8353
3.016491,-1018,-1178,-7620
3.017692,-1000,-883,-7239
3.018892,-1007,-548,-6480
3.020093,-1062,-380,-5782
3.021293,-1071,25,-5177
3.022494,-1138,439,-4820
3.023694,-1187,655,-4342
3.024895,-1177,1087,-4040
3.026095,-1143,1481,-3963
3.027296,-1067,1919,-3916
3.028496,-949,1997,-3981
3.029697,-901,2277,-4035
3.030897,-752,2527,-4261
3.032098,-623,2639,-4504
3.033298,-467,2790,-4725
3.034499,-404,2897,-4845
3.035699,-276,2938,-4975
3.013023,-156,2970,-5086
3.014224,-104,2949,-5122
3.015424,4,2886,-5233
3.016625,142,2823,-5293
3.017825,420,2701,-5366
3.019026,645,2553,-5386
3.020226,1205,2515,-5283
3.021427,1762,2429,-4829
3.022627,1965,2471,-4413
3.023828,2202,2565,-3196
3.025028,2195,2628,-1602
3.026229,2122,2730,34
3.027429,2100,2884,1056
3.028630,2144,2995,2831
3.029830,2147,3177,5049
3.031031,2162,3421,6279
3.032231,2393,3750,8659
3.033432,2711,3894,10706
3.034632,2819,4046,12695
3.035833,2809,4245,13562
3.080494,2903,4423,15459
3.081694,3124,4853,17061
3.082895,3214,5316,17666
3.084095,3327,5823,18544
3.085296,3343,6150,18916
3.086496,3258,6773,18594
3.087697,3211,7352,17708
3.088897,2873,7445,15463
3.090098,2224,7533,13248
3.091298,1824,7459,12502
3.092499,965,6996,11455
3.093699,146,6818,10235
3.094900,-758,6426,9384
3.096100,-1049,5961,7679
3.097301,-1871,5699,6163
3.098501,-2599,5191,4506
3.099702,-2940,4698,3621
3.100902,-3519,4232,1699
3.102103,-4064,3976,-185
3.103303,-4566,3460,-1122
3.127943,-4578,2978,-3023
3.129144,-4732,2700,-4861
3.130344,-4753,2200,-6781
3.131544,-4720,1670,-7654
3.132745,-4642,1107,-9279
3.133945,-4512,821,-10740
3.135146,-4439,234,-11503
3.136346,-4335,-387,-12842
3.137547,-4254,-698,-13975
3.138747,-4156,-1313,-15008
3.139948,-4080,-1863,-15567
3.141148,-3868,-2123,-16650
3.142349,-3579,-2518,-17498
3.143549,-3412,-2985,-17829
3.144750,-3100,-3374,-18554
3.145950,-2773,-3566,-19124
3.147151,-2503,-3918,-19591
3.148351,-2363,-4224,-19581
3.149552,-2167,-4343,-19661
3.150752,-1970,-4602,-19566
3.183785,-1906,-4888,-19356
3.184985,-1852,-5101,-18564
3.186186,-1872,-5108,-17110
3.187386,-1540,-4969,-15190
3.188587,-1553,-4685,-14484
3.189787,-1275,-4530,-13255
3.190988,-1230,-4192,-12192
3.192188,-1270,-3888,-11532
3.193389,-1375,-3484,-10269
3.194589,-1514,-3360,-9374
3.195790,-1569,-3002,-8691
3.196990,-1681,-2606,-8084
3.198190,-1770,-2378,-7249
3.199391,-1817,-1928,-6578
3.200591,-1845,-1437,-6304
3.201792,-1868,-963,-5713
3.202992,-1797,-782,-5274
3.204193,-1752,-361,-5062
3.205393,-1643,32,-4743
3.206594,-1526,201,-4477
3.183903,-1390,493,-4243
3.185103,-1304,696,-4176
3.186304,-1076,774,-4035
3.187504,-919,900,-3887
3.188705,-850,1024,-3799
3.189905,-734,1118,-3572
3.191106,-599,1150,-3360
3.192306,-452,1264,-3168
3.193507,-377,1399,-3055
3.194707,-212,1472,-2765
3.195908,-102,1599,-2477
3.197108,-29,1729,-2357
3.198309,93,1886,-2141
3.199509,303,1979,-1962
3.200710,643,2175,-1875
3.201910,875,2450,-1693
3.203111,1432,2602,-1352
3.204311,1950,2950,-557
3.205512,2148,3364,-23
3.206712,2333,3803,1421
3.250706,2221,4053,3232
3.251906,2153,4545,5245
3.253107,2001,5076,6175
3.254307,1952,5364,7933
3.255508,2164,5946,9281
3.256708,2266,6437,9792
3.257909,2421,6684,10501
3.259109,2501,7095,10981
3.260310,2564,7427,11123
3.261510,2703,7742,11107
3.262711,2993,7877,10571
3.263911,3309,8029,9532
3.265111,3358,7836,8885
3.266312,3196,7454,7615
3.267512,2923,7527,6877
3.268713,2767,7265,6635
3.269913,2414,6890,6011
3.271114,2111,6681,5088
3.272314,1922,6267,4213
3.273515,1880,5795,3886
3.303953,1765,5331,3295
3.305154,1553,5111,3001
3.306354,1387,4555,2932
3.307555,963,4009,2792
3.308755,523,3770,2479
3.309956,84,3240,2144
3.311156,-112,2713,1956
3.312357,-585,2191,1358
3.313557,-1093,1961,557
3.314758,-1304,1522,115
3.315958,-1729,1104,-867
3.317159,-2016,905,-1930
3.318359,-2197,561,-2974
3.319560,-2215,251,-3638
3.320760,-2216,129,-4878
3.321961,-2165,-84,-5964
3.323161,-2127,-320,-6429
3.324362,-2081,-485,-7429
3.325562,-2050,-568,-8349
3.326762,-2102,-736,-9009
3.356590,-2111,-900,-9508
3.357791,-2172,-960,-10196
3.358991,-2164,-1071,-10857
3.360192,-2151,-1128,-11208
3.361392,-2085,-1161,-11683
3.362593,-1975,-1165,-12156
3.363793,-1917,-1181,-12652
3.364994,-1715,-1136,-12817
3.366194,-1537,-1129,-13081
3.367395,-1335,-1109,-13244
3.368595,-1257,-1092,-13307
3.369796,-1161,-1108,-13345
3.370996,-1119,-1141,-13226
3.372197,-1138,-1208,-13085
3.373397,-1228,-1274,-12653
3.374598,-1385,-1323,-11999
3.375798,-1528,-1400,-11262
3.376998,-1546,-1476,-10943
3.378199,-1478,-1514,-10407
3.379399,-1340,-1505,-9845
3.356761,-1182,-1327,-8999
3.357961,-1110,-988,-8588
3.359162,-938,-825,-7812
3.360362,-887,-531,-7189
3.361563,-867,-329,-6928
3.362763,-874,-21,-6554
3.363964,-923,-201,-6202
3.365164,-934,-159,-6045
3.366365,-971,-104,-5800
3.367565,-989,-54,-5663
3.368766,-960,99,-5534
3.369966,-908,312,-5489
3.371166,-849,413,-5420
3.372367,-766,647,-5406
3.373567,-718,826,-5417
3.374768,-649,935,-5543
3.375968,-566,974,-5761
3.377169,-502,987,-6114
3.378369,-516,967,-6035
3.379570,-506,952,-6214
3.407290,-511,933,-6339
3.408490,-500,930,-6390
3.409690,-454,890,-6457
3.410891,-409,900,-6586
3.412091,-396,872,-6642
3.413292,-334,846,-6665
3.414492,-235,827,-6693
3.415693,-168,753,-6661
3.416893,-145,690,-6651
3.418094,-92,674,-6517
3.419294,-85,636,-6286
3.420495,-63,648,-5908
3.421695,-28,647,-5870
3.422896,28,648,-5560
3.424096,102,644,-5233
3.425297,163,685,-5049
3.426497,252,718,-4594
3.427698,348,817,-4087
3.428898,680,965,-3821
3.430099,688,1208,-3268
3.407418,1178,1353,-2614
3.408619,1717,1755,-1650
3.409819,1913,2121,-963
3.411020,2061,2558,831
3.412220,1941,2750,3102
3.413421,1802,3192,5400
3.414621,1601,3766,6829
3.415822,1572,4006,8948
3.417022,1780,4457,10468
3.418223,2000,4915,10996
3.419423,2561,5096,11927
3.420624,2944,5394,12995
3.421824,3083,5787,13616
3.423025,3256,6231,14927
3.424225,3343,6444,15991
3.425426,3326,6859,16615
3.426626,3266,7213,16576
3.427827,3053,7448,15909
3.429027,2691,7708,14468
3.430228,2346,7636,13651
3.471929,1468,7455,12243
3.473129,600,7321,11276
3.474330,-73,6936,10020
3.475530,-646,6575,9545
3.476731,-1428,6382,7910
3.477931,-2070,6055,6163
3.479132,-2403,5566,5303
3.480332,-3033,5051,3537
3.481532,-3568,4840,1721
3.482733,-4158,4296,-182
3.483933,-4417,3723,-1082
3.485134,-4823,3437,-2933
3.486334,-5134,2857,-4703
3.487535,-5253,2259,-5608
3.488735,-5439,1738,-7426
3.489936,-5469,1454,-9155
3.491136,-5184,895,-9981
3.492337,-5293,344,-11631
3.493537,-5080,74,-13133
3.494738,-4786,-364,-14451
3.519010,-4625,-828,-15024
3.520211,-4272,-1299,-16013
3.521411,-3979,-1517,-16829
3.522611,-3596,-1947,-17189
3.523812,-3585,-2339,-17748
3.525012,-3361,-2531,-18134
3.526213,-3167,-2832,-18436
3.527413,-3101,-3160,-18528
3.528614,-2946,-3558,-18574
3.529814,-2874,-3573,-18522
3.531015,-2860,-3834,-18422
3.532215,-2854,-4090,-18054
3.533416,-2875,-4237,-17431
3.534616,-2886,-4496,-16379
3.535817,-2856,-4503,-15766
3.537017,-2655,-4401,-14200
3.538218,-2388,-4023,-12854
3.539418,-2302,-3536,-12298
3.540619,-2227,-3143,-11267
3.541819,-2284,-2945,-10217
3.570518,-2363,-2604,-9461
3.571719,-2440,-2256,-8807
3.572919,-2565,-2081,-8049
3.574120,-2663,-1648,-7345
3.575320,-2712,-1190,-7021
3.576521,-2797,-675,-6425
3.577721,-2811,-410,-5973
3.578922,-2803,34,-5831
3.580122,-2701,444,-5679
3.581323,-2537,602,-5607
3.582523,-2376,925,-5586
3.583724,-2288,1201,-5626
3.584924,-2112,1285,-5664
3.586125,-1901,1516,-5681
3.587325,-1563,1718,-5684
3.588526,-1648,1933,-5622
3.589726,-1504,2020,-5486
3.590927,-1409,2181,-5350
3.592127,-1359,2330,-5266
3.593328,-1238,2354,-5048
3.598889,-1022,2426,-4825
3.600089,-630,2433,-4684
3.601290,-556,2455,-4455
3.602490,-200,2441,-4070
3.603691,44,2526,-3406
3.604891,116,2646,-2925
3.606092,196,2708,-1892
3.607292,297,2890,-841
3.608493,418,3117,-335
3.609693,787,3369,655
3.610894,1229,3537,1782
3.612094,1629,3875,3311
3.613295,1800,4283,4231
3.614495,1926,4523,6310
3.615696,2002,5114,8444
3.616896,2115,5560,9510
3.618097,2223,5755,11498
3.619297,2285,5824,13176
3.620498,2364,6106,14610
3.621698,2441,6428,15169
3.599129,2539,6649,15944
3.600330,2637,7113,16105
3.601530,2698,7645,15940
3.602731,2873,8136,14841
3.603931,2770,8178,13069
3.605132,2336,8255,11408
3.606332,2043,8150,11060
3.607533,1456,8016,10397
3.608733,758,7683,9399
3.609934,409,7256,8777
3.611134,-359,6773,7449
3.612335,-1139,6534,6060
3.613535,-2035,5921,4549
3.614735,-2272,5332,3656
3.615936,-2916,5026,1913
3.617136,-3429,4415,134
3.618337,-3639,3807,-779
3.619537,-3938,3262,-2704
3.620738,-4131,2884,-4561
3.621938,-4175,2311,-5434
3.651558,-4169,1796,-7151
3.652759,-4112,1522,-8759
3.653959,-4019,953,-10195
3.655160,-3991,384,-10826
3.656360,-3883,-120,-12115
3.657561,-3756,-421,-13161
3.658761,-3677,-918,-13621
3.659962,-3568,-1451,-14499
3.661162,-3459,-1697,-15351
3.662363,-3362,-2137,-15993
3.663563,-3285,-2584,-16251
3.664764,-3100,-3029,-16801
3.665964,-2894,-3127,-17241
3.667165,-2816,-3462,-17400
3.668365,-2637,-3788,-17578
3.669566,-2511,-3952,-17614
3.670766,-2426,-4253,-17592
3.671967,-2387,-4598,-17241
3.673167,-2333,-4739,-16481
3.674368,-2305,-4914,-15232
3.703666,-2239,-4882,-14386
3.704867,-2087,-4565,-12750
3.706067,-1909,-4381,-11422
3.707267,-1789,-3948,-10453
3.708468,-1772,-3514,-9958
3.709668,-1763,-3270,-8863
3.710869,-1768,-2850,-8038
3.712069,-1787,-2436,-7676
3.713270,-1838,-2012,-7017
3.714470,-1889,-1754,-6385
3.715671,-1902,-1237,-5832
3.716871,-1887,-670,-5496
3.718072,-1863,-389,-5030
3.719272,-1857,165,-4651
3.720473,-1841,683,-4465
3.721673,-1747,1162,-4286
3.722874,-1613,1282,-4246
3.724074,-1526,1536,-4292
3.725275,-1358,1661,-4452
3.726475,-1216,1708,-4614
3.904441,-1063,1753,-4788
3.905641,-992,1753,-4832
3.906842,-911,1745,-4924
3.908042,-843,1717,-4967
3.909243,-539,1720,-4964
3.910443,-696,1713,-4932
3.911644,-614,1702,-4862
3.912844,-520,1694,-4721
3.914045,-495,1728,-4606
3.915245,-446,1719,-4375
3.916446,-464,1746,-4081
3.917646,-468,1780,-3886
3.918847,-441,1826,-3607
3.920047,-303,1871,-3373
3.921248,27,1984,-3266
3.922448,296,2175,-3203
3.923649,916,2309,-2866
3.924849,1652,2628,-2174
3.926050,1930,3016,-1592
3.927250,2288,3483,-5
3.904610,2395,3753,2155
3.905811,2295,4394,4364
3.907011,2186,4955,5788
3.908212,1984,5130,8016
3.909412,1774,5322,9947
3.910613,1681,5545,10767
3.911813,1605,5929,12115
3.913014,1674,6170,12904
3.914214,2031,6699,13098
3.915415,2012,7269,13187
3.916615,2313,7816,12764
3.917816,2656,8112,11345
3.919016,2741,8125,10369
3.920217,2552,8014,8390
3.921417,2221,7849,7288
3.922617,1700,7336,6426
3.923818,1440,6808,6133
3.925018,945,6552,5230
3.926219,469,6019,4311
3.927419,254,5516,3787
3.904702,-149,5014,2651
3.905903,-471,4799,1600
3.907103,-603,4289,1082
3.908304,-829,3769,-69
3.909504,-932,3492,-1240
3.910705,-975,2964,-2374
3.911905,-970,2439,-2898
3.913106,-990,1923,-3818
3.914306,-1035,1671,-4685
3.915507,-1086,1166,-5087
3.916707,-1209,667,-5842
3.917908,-1323,430,-6582
3.919108,-1379,13,-7341
3.920309,-1407,-410,-7669
3.921509,-1442,-867,-8301
3.922709,-1434,-939,-8996
3.923910,-1414,-1215,-9283
3.925110,-1362,-1447,-9841
3.926311,-1239,-1539,-10377
3.927511,-1112,-1697,-10902
3.963956,-1062,-1841,-11114
3.965156,-961,-1878,-11500
3.966357,-911,-1950,-11799
3.967557,-864,-1909,-11845
3.968758,-719,-1865,-11886
3.969958,-702,-1835,-11858
3.971159,-716,-1728,-11535
3.972359,-734,-1612,-11563
3.973560,-795,-1531,-11229
3.974760,-850,-1368,-10735
3.975961,-860,-1190,-10463
3.977161,-849,-1009,-9856
3.978362,-750,-911,-9106
3.979562,-704,-708,-8447
3.980762,-541,-470,-7945
3.981963,-388,-319,-7129
3.983163,-231,-23,-6290
3.984364,-152,247,-5953
3.985564,-58,326,-5364
3.986765,-25,429,-4842
3.964115,1991,5806,8623
3.965316,2018,6457,8888
3.966516,2098,6799,8927
3.967716,2109,7442,8754
3.968917,2102,7964,8045
3.970117,1954,8085,7125
3.971318,1573,8239,6625
3.972518,1539,8239,5797
3.973719,1223,8218,5244
3.974919,831,8137,4666
3.976120,593,7977,4333
3.977320,57,7865,3573
3.978521,-479,7509,2787
3.979721,-757,7076,2312
3.980922,-1245,6544,1224
3.982122,-1661,6281,-36
3.983323,-1988,5692,-1262
3.984523,-2122,5098,-1908
3.985724,-2351,4768,-3188
3.986924,-2492,4100,-4465
4.013924,-2538,3470,-5123
4.015125,-2565,2826,-6260
4.016325,-2563,2505,-7303
4.017526,-2579,1865,-8157
4.018726,-2571,1208,-8531
4.019927,-2581,910,-9250
4.021127,-2618,292,-9940
4.022328,-2593,-260,-10224
4.023528,-2512,-743,-10750
4.024729,-2422,-1001,-11238
4.025929,-2304,-1413,-11690
4.027130,-2246,-1837,-11758
4.028330,-2151,-2004,-12015
4.029531,-2063,-2325,-12168
4.030731,-2025,-2637,-12223
4.031932,-1988,-2870,-12294
4.033132,-1996,-3018,-12351
4.034333,-1978,-3279,-12335
4.035533,-1921,-3497,-12305
4.036734,-1879,-3614,-12201
4.040901,-1830,-3808,-11956
4.042101,-1798,-3989,-11761
4.043302,-1794,-4032,-11144
4.044502,-1737,-3977,-10199
4.045703,-1685,-3721,-9715
4.046903,-1633,-3392,-8929
4.048104,-1563,-3244,-8261
4.049304,-1514,-2930,-7923
4.050505,-1528,-2655,-7794
4.051705,-1549,-2550,-7567
4.052906,-1551,-2272,-7283
4.054106,-1584,-1946,-7122
4.055307,-1634,-1553,-6831
4.056507,-1641,-1348,-6519
4.057707,-1722,-936,-6291
4.058908,-1712,-502,-6169
4.060108,-1833,-118,-5971
4.061309,-1878,-54,-5963
4.062509,-1853,376,-5941
4.063710,-1779,649,-5963
4.088666,-1738,777,-6165
4.089866,-1559,964,-6556
4.091067,-1458,1117,-6491
4.092267,-1298,1164,-6674
4.093468,-1190,1242,-6774
4.094668,-1128,1311,-6781
4.095869,-938,1289,-6747
4.097069,-788,1278,-6708
4.098270,-658,1188,-6586
4.099470,-639,1133,-6368
4.100671,-628,1097,-6036
4.101871,-648,1083,-5543
4.103072,-656,1099,-5280
4.104272,-718,1141,-4775
4.105473,-665,1172,-4289
4.106673,-326,1280,-3796
4.107874,-337,1449,-3531
4.109074,-128,1538,-2830
4.110275,140,1776,-2072
4.111475,303,2048,-1690
4.136059,653,2495,-857
4.137259,1033,2626,157
4.138460,1486,3056,1519
4.139660,1492,3556,2253
4.140861,1618,3837,4130
4.142061,1511,4487,6229
4.143262,1410,5199,7286
4.144462,1279,5783,9278
4.145663,1280,6136,10784
4.146863,1361,6711,11325
4.148064,1525,7171,12105
4.149264,1700,7388,12626
4.150465,1890,7923,12849
4.151665,2006,8523,12832
4.152866,2357,9060,12159
4.154066,2589,9202,10770
4.155267,2306,9201,9962
4.156467,2340,9003,8560
4.157667,1998,8842,7633
4.158868,1574,8441,6785
4.183282,1330,7929,6338
4.184482,789,7440,5397
4.185683,228,7133,4390
4.186883,-69,6530,3822
4.188084,-512,5940,2656
4.189284,-851,5653,1515
4.190485,-1080,5044,423
4.191685,-1181,4460,-162
4.192886,-1377,4179,-1158
4.194086,-1606,3646,-2155
4.195286,-1706,3116,-2671
4.196487,-1946,2608,-3582
4.197687,-2194,2358,-4436
4.198888,-2426,1863,-5137
4.200088,-2527,1387,-5777
4.201289,-2637,902,-6707
4.202489,-2660,744,-7584
4.203690,-2610,339,-8015
4.204890,-2455,5,-8783
4.206091,-2324,-140,-9451
4.228825,-2225,-386,-9737
4.230025,-2049,-618,-10186
4.231226,-1933,-752,-10484
4.232426,-1861,-958,-10709
4.233627,-1852,-1123,-10754
4.234827,-1866,-1484,-10787
4.236028,-1921,-1419,-10751
4.237228,-1927,-1559,-10725
4.238429,-1945,-1687,-10619
4.239629,-1935,-1769,-10467
4.240830,-1891,-1877,-10301
4.242030,-1859,-1925,-10197
4.243231,-1853,-1960,-9993
4.244431,-1850,-2007,-9777
4.245632,-1561,-2046,-9710
4.246832,-1689,-2032,-9555
4.248033,-1596,-2039,-9301
4.249233,-1455,-2033,-8906
4.250434,-1402,-2010,-8645
4.251634,-1294,-1976,-8084
4.228981,-1167,-1897,-7485
4.230182,-1128,-1804,-7161
4.231382,-993,-1632,-6645
4.232583,-903,-1540,-6221
4.233783,-863,-1324,-5754
4.234983,-845,-961,-5575
4.236184,-786,-768,-5048
4.237384,-794,-327,-4642
4.238585,-784,37,-4484
4.239785,-814,259,-4363
4.240986,-847,334,-4523
4.242186,-837,353,-4643
4.243387,-824,386,-4923
4.244587,-834,400,-5141
4.245788,-864,433,-5373
4.246988,-880,504,-5481
4.248189,-842,606,-5732
4.249389,-828,656,-6044
4.250590,-834,738,-6175
4.251790,-863,825,-6369
4.277363,-944,869,-6554
4.278564,-1025,903,-6732
4.279764,-1068,900,-6844
4.280965,-1128,907,-7129
4.282165,-1173,905,-7418
4.283366,-1169,888,-7842
4.284566,-1161,847,-7876
4.285767,-1164,853,-8144
4.286967,-1185,839,-8291
4.288168,-1175,839,-8344
4.289368,-1151,834,-8466
4.290569,-1072,780,-8510
4.291769,-1047,712,-8488
4.292970,-981,612,-8508
4.294170,-916,544,-8366
4.295371,-934,437,-8114
4.296571,-978,329,-7956
4.297771,-1035,307,-7583
4.298972,-1104,280,-7175
4.300172,-1138,330,-6906
4.323591,-1111,398,-6363
4.324792,-834,428,-5986
4.325992,-236,535,-5601
4.327192,115,730,-5315
4.328393,739,961,-4332
4.329593,1048,1082,-2553
4.330794,1111,1370,-1503
4.331994,961,1806,881
4.333195,556,2056,3619
4.334395,48,2567,6611
4.335596,-148,3021,7970
4.336796,-263,3290,10239
4.337997,53,3863,11901
4.339197,329,4431,12553
4.340398,1008,5107,13545
4.341598,1762,5402,14523
4.342799,2448,6029,15116
4.343999,2487,7029,15809
4.345200,2720,7483,16656
4.346400,2910,8430,16916
4.370804,3001,9447,16668
4.372004,2982,10107,15669
4.373205,2530,10321,14311
4.374405,1626,10565,12753
4.375606,1313,10621,12141
4.376806,461,10571,11027
4.378007,-400,10401,9678
4.379207,-788,10117,8873
4.380408,-1528,9926,7245
4.381608,-2185,9553,5648
4.382809,-3001,9136,4864
4.384009,-3127,8619,3314
4.385210,-3711,8327,1669
4.386410,-4287,7715,-98
4.387611,-4585,7009,-989
4.388811,-5164,6334,-2543
4.390012,-5659,5691,-4260
4.391212,-5922,4723,-5193
4.392413,-6237,3754,-6989
4.393613,-6381,3284,-8767
4.415986,-6532,2361,-10329
4.417187,-6572,1322,-11037
4.418387,-6503,292,-12275
4.419588,-6240,3,-13365
4.420788,-6072,-815,-13933
4.421989,-5668,-1603,-15105
4.423189,-5297,-1968,-15741
4.424390,-5031,-2748,-16576
4.425590,-4873,-3292,-16657
4.426791,-4425,-3521,-16803
4.427991,-5326,-4357,-16624
4.429192,-7334,-5922,-17073
4.430392,-5177,-4440,-19107
4.431592,-1293,-4228,-17505
4.432793,-480,-3736,-15926
4.433993,-921,-3751,-15468
4.435194,-1353,-3737,-14077
4.436394,-1471,-3744,-12040
4.437595,-1643,-3962,-11098
4.438795,-2074,-4145,-10176
4.461503,-1876,-4150,-9555
4.462703,-1376,-4020,-8907
4.463904,-1199,-3891,-8538
4.465104,-827,-3801,-7808
4.466305,-794,-3612,-6820
4.467505,-801,-3260,-6332
4.468706,-844,-2868,-5542
4.469906,-922,-2851,-4998
4.471107,-964,-2640,-4724
4.472307,-1043,-2449,-4356
4.473507,-1060,-2346,-4179
4.474708,-1077,-2256,-4133
4.475908,-1071,-2176,-4164
4.477109,-975,-2158,-4327
4.478309,-930,-2145,-4594
4.479510,-900,-2127,-4747
4.480710,-890,-2092,-5058
4.481911,-872,-2088,-5392
4.483111,-850,-1999,-5637
4.484312,-853,-1938,-5763
4.506018,-858,-1917,-6000
4.507219,-855,-1878,-6250
4.508419,-850,-1836,-6340
4.509620,-816,-1751,-6525
4.510820,-809,-1713,-6622
4.512021,-811,-1588,-6668
4.513221,-846,-1508,-6723
4.514422,-887,-1428,-6719
4.515622,-928,-1267,-6590
4.516823,-929,-1110,-6581
4.518023,-992,-927,-6467
4.519223,-1068,-820,-6307
4.520424,-1149,-612,-5962
4.521624,-1175,-389,-6027
4.522825,-1268,-269,-5763
4.524025,-1462,-20,-5472
4.525226,-1553,250,-5031
4.526426,-1611,498,-4990
4.527627,-1497,671,-4869
4.528827,-1399,1003,-4791
4.558091,-1201,1265,-4611
4.559291,-704,1381,-4463
4.560492,-84,1751,-4050
4.561692,204,2162,-3580
4.562893,706,2672,-2336
4.564093,876,3023,-545
4.565294,599,3799,400
4.566494,531,4534,2504
4.567695,181,4940,4732
4.568895,-40,5693,6876
4.570096,-47,6417,7813
4.571296,223,7036,9329
4.572497,804,7423,10459
4.573697,1401,8080,11018
4.574898,1916,8689,12040
4.576098,2396,8958,13280
4.577299,2562,9445,14421
4.578499,2601,10004,14875
4.579700,2697,10539,15379
4.580900,2737,10808,14811
4.558242,2691,11151,14131
4.559443,2180,11009,12299
4.560643,1254,10892,10497
4.561844,367,10571,9342
4.563044,-54,10179,8789
4.564244,-869,9948,7658
4.565445,-1702,9464,6134
4.566645,-2128,8912,5243
4.567846,-2913,8187,3583
4.569046,-3615,7807,1963
4.570247,-4151,7037,10
4.571447,-4352,6238,-815
4.572648,-4696,5791,-2578
4.573848,-4916,4850,-4323
4.575049,-5012,3925,-5155
4.576249,-5124,3052,-6822
4.577450,-5163,2568,-8266
4.578650,-4880,1765,-9498
4.579851,-5069,960,-10383
4.581051,-4971,541,-11605
4.585907,-4806,-252,-12664
4.587107,-4687,-932,-13124
4.588308,-4322,-1547,-14046
4.589508,-3949,-1905,-14901
4.590708,-3775,-2477,-15472
4.591909,-3469,-3107,-15586
4.593109,-3163,-3413,-15872
4.594310,-2890,-3919,-15966
4.595510,-2765,-4357,-15995
4.596711,-2656,-4839,-15727
4.597911,-2517,-4976,-15351
4.599112,-2478,-5257,-15172
4.600312,-2540,-5573,-14304
4.601513,-2516,-5703,-13540
4.602713,-2428,-5856,-12768
4.603914,-2340,-5908,-12346
4.605114,-2042,-5638,-11597
4.606315,-1731,-5751,-10723
4.607515,-1655,-5457,-10167
4.608716,-1576,-4930,-8936
4.631432,-1516,-4599,-7899
4.632633,-1516,-4009,-7015
4.633833,-1540,-3434,-6579
4.635034,-1619,-3171,-5958
4.636234,-1757,-2705,-5576
4.637434,-1813,-2263,-5219
4.638635,-1887,-1818,-5272
4.639835,-1928,-1591,-5258
4.641036,-1911,-1116,-5567
4.642236,-1902,-639,-5506
4.643437,-1876,-405,-5723
4.644637,-1870,8,-5925
4.645838,-1840,395,-6025
4.647038,-1726,720,-6328
4.648239,-1625,833,-6600
4.649439,-1301,1003,-6743
4.650640,-1413,1103,-6982
4.651840,-1266,1113,-7125
4.653041,-1126,1130,-7193
4.654241,-1061,1071,-7183
4.678394,-954,1032,-7135
4.679595,-910,987,-6945
4.680795,-887,976,-6801
4.681996,-884,929,-6498
4.683196,-883,906,-6104
4.684397,-926,919,-5703
4.685597,-960,930,-5461
4.686798,-1003,954,-4955
4.687998,-1096,1034,-4455
4.689199,-1159,1102,-4179
4.690399,-1182,1174,-3659
4.691600,-1178,1256,-3221
4.692800,-1140,1414,-2706
4.694001,-1070,1511,-2507
4.695201,-860,1630,-2224
4.696402,-601,1814,-2018
4.697602,-168,2002,-1874
4.698803,126,2225,-1606
4.700003,789,2420,-1040
4.701203,1241,2929,137
4.722567,1376,3546,968
4.723767,1609,4186,2927
4.724968,1666,4761,5236
4.726168,1608,5677,6409
4.727369,1293,6364,8798
4.728569,1152,6709,10928
4.729770,1252,7359,12610
4.730970,1321,7906,13252
4.732171,1495,8142,14221
4.733371,1683,8681,14640
4.734572,1834,9264,14669
4.735772,2250,9891,14284
4.736973,2725,10195,13398
4.738173,2884,10661,12347
4.739374,2817,10935,11872
4.740574,2444,11061,11287
4.741775,1893,11161,10958
4.742975,1586,11193,10776
4.744176,782,11047,10346
4.745376,-298,10894,9754
4.769680,-1397,10429,8767
4.770880,-2112,9934,8122
4.772081,-3170,9621,6749
4.773281,-4130,8818,5362
4.774482,-4545,8010,4522
4.775682,-5212,7099,2683
4.776882,-5813,6643,731
4.778083,-6323,5775,-1034
4.779283,-6454,4855,-2181
4.780484,-6660,4418,-4188
4.781684,-6836,3477,-6028
4.782885,-6893,2396,-6831
4.784085,-6979,1423,-8554
4.785286,-6948,1036,-9984
4.786486,-6663,-2,-11460
4.787687,-6870,-974,-12094
4.788887,-6797,-1398,-13371
4.790088,-6564,-2271,-14540
4.791288,-6439,-3221,-15125
4.792489,-6109,-3895,-16372
4.855213,-5574,-4486,-17597
4.856413,-5396,-5224,-17997
4.857613,-4805,-5981,-18588
4.858814,-4211,-6292,-19197
4.860014,-3634,-6923,-19506
4.861215,-3355,-7546,-19573
4.862415,-2950,-7860,-19501
4.863616,-2733,-8404,-19102
4.864816,-2720,-8844,-18742
4.866017,-2755,-9209,-17672
4.867217,-2776,-9323,-16424
4.868418,-2780,-9457,-14976
4.869618,-2723,-9280,-14328
4.870819,-2542,-9107,-13037
4.872019,-2329,-8578,-11977
4.873220,-2262,-8041,-11515
4.874420,-2252,-7484,-10695
4.875621,-2288,-7178,-9821
4.876821,-2311,-6480,-8813
4.878022,-2480,-5764,-8422
4.855358,-2704,-5385,-7627
4.856559,-2930,-4621,-6832
4.857759,-3025,-3891,-6453
4.858960,-3186,-3277,-5939
4.860160,-3332,-2875,-5615
4.861361,-3357,-2200,-5229
4.862561,-3395,-1610,-5259
4.863762,-3366,-1301,-5129
4.864962,-3275,-720,-5124
4.866163,-3224,-129,-5112
4.867363,-3157,404,-5018
4.868564,-3006,638,-4930
4.869764,-2663,1075,-4954
4.870965,-2644,1479,-4933
4.872165,-2392,1664,-4802
4.873366,-2178,2033,-4539
4.874566,-2077,2469,-4322
4.875767,-1966,2965,-3753
4.876967,-1793,3247,-2933
4.878168,-1665,3843,-2493
4.855440,-1273,4427,-1765
4.856640,-677,4733,-1013
4.857841,68,5320,-152
4.859041,474,5976,432
4.860242,1125,6874,2092
4.861442,1391,7318,4683
4.862643,1344,8520,6324
4.863843,901,9788,9971
4.865044,740,10291,13493
4.866244,719,11251,15970
4.867445,733,12079,17087
4.868645,953,12400,18491
4.869846,1353,13093,19122
4.871046,1566,13659,19086
4.872247,2014,14358,18786
4.873447,2307,14548,17361
4.874647,2095,14455,14972
4.875848,1804,14072,13889
4.877048,1078,13843,12483
4.878249,192,13203,11518
4.914154,-4718,9075,5185
4.915354,-5215,7732,4311
4.916555,-6034,7061,2254
4.917755,-6610,5875,-180
4.918956,-6693,4705,-1245
4.920156,-6738,4115,-3353
4.921357,-6643,2948,-5552
4.922557,-6616,1955,-6452
4.923758,-6446,934,-8229
4.924958,-6160,354,-9845
4.926159,-6083,-550,-10570
4.927359,-6034,-1491,-11658
4.928560,-5922,-1892,-12944
4.929760,-5720,-2661,-13924
4.930960,-5627,-3383,-14359
4.932161,-5371,-4305,-15235
4.933361,-4957,-4425,-16075
4.934562,-4440,-4869,-16429
4.935762,-4177,-5356,-17083
4.936963,-3561,-5555,-17438
4.967565,-2930,-5900,-17608
4.968765,-2680,-6222,-17609
4.969966,-2261,-6420,-17340
4.971166,-1919,-6752,-16611
4.972367,-1797,-6984,-16143
4.973567,-1664,-7084,-14850
4.974768,-1750,-7093,-12951
4.975968,-1727,-6966,-11042
4.977169,-1690,-6612,-10475
4.978369,-1586,-6386,-9100
4.979569,-1424,-5846,-8005
4.980770,-1327,-5225,-7479
4.981970,-1180,-4537,-6658
4.983171,-1100,-4236,-6047
4.984371,-1176,-3542,-5204
4.985572,-1186,-2610,-4886
4.986772,-1148,-2151,-4028
4.987973,-1184,-1285,-3633
4.989173,-1202,-669,-3541
4.990374,-1224,-191,-3524
4.993861,-1172,3,-3687
4.995061,-1162,315,-4089
4.996262,-1113,545,-4150
4.997462,-1064,645,-4488
4.998663,-1035,822,-4753
4.999863,-1044,968,-4867
5.001064,-1107,1046,-5097
5.002264,-1257,1044,-5334
5.003465,-1345,1034,-5501
5.004665,-1548,974,-5873
5.005865,-1736,918,-6292
5.007066,-1869,797,-6816
5.008266,-1910,675,-7040
5.009467,-1974,600,-7523
5.010667,-2024,515,-7880
5.011868,-2057,367,-8090
5.013068,-2081,320,-8489
5.014269,-2076,318,-8745
5.015469,-2053,337,-8889
5.016670,-2022,382,-8950
5.037975,-1964,411,-8984
5.039175,-1929,476,-8910
5.040376,-1905,525,-8823
5.041576,-1865,600,-8654
5.042777,-1855,630,-8400
5.043977,-1904,712,-8011
5.045178,-1934,837,-7921
5.046378,-2032,892,-7394
5.047579,-2029,1030,-7005
5.048779,-1939,1066,-6685
5.049980,-1423,1175,-6591
5.051180,-705,1240,-6306
5.052381,148,1366,-5482
5.053581,575,1624,-5009
5.054782,1139,1846,-3325
5.055982,1235,2393,-795
5.057183,1068,3054,729
5.058383,459,3925,4190
5.059584,-269,4301,7805
5.060784,-484,5053,11046
5.082899,-267,5891,12330
5.084100,442,6292,14354
5.085300,1169,7030,16082
5.086501,1422,7668,16978
5.087701,1724,8254,18772
5.088902,1984,8850,20139
5.090102,2108,9762,20880
5.091303,2361,10732,20997
5.092503,2519,11221,20097
5.093703,2336,11849,17897
5.094904,1976,11841,16528
5.096104,906,11766,14094
5.097305,-129,11552,12502
5.098505,-1172,11151,11843
5.099706,-1785,10554,10286
5.100906,-2934,10223,8121
5.102107,-4021,9498,5941
5.103307,-4534,8517,4973
5.104508,-5456,7515,2887
5.105708,-6104,7017,515
5.131558,-6341,6070,-714
5.132758,-6698,4936,-2879
5.133959,-6953,4506,-5097
5.135159,-7035,3502,-7221
5.136360,-6981,2504,-8240
5.137560,-6820,2014,-10234
5.138761,-6598,1141,-12004
5.139961,-6473,240,-12812
5.141162,-6274,-695,-14348
5.142362,-6042,-1075,-15831
5.143563,-5796,-1875,-16956
5.144763,-5689,-2747,-17487
5.145964,-5324,-3108,-18759
5.147164,-4849,-3924,-19698
5.148365,-4593,-4752,-20010
5.149565,-4032,-5448,-20592
5.150766,-3488,-5771,-20920
5.151966,-2997,-6414,-20622
5.153166,-2860,-6994,-20515
5.154367,-2642,-7241,-19904
5.206296,-2554,-7651,-18622
5.207496,-2533,-7914,-17837
5.208697,-2353,-7987,-16221
5.209897,-2094,-7958,-14515
5.211098,-1807,-7699,-12915
5.212298,-1961,-7222,-12020
5.213499,-1860,-6950,-10631
5.214699,-1840,-6285,-9229
5.215900,-1871,-5686,-8552
5.217100,-2016,-4887,-7500
5.218301,-2213,-4837,-6596
5.219501,-2548,-4249,-6205
5.220702,-2485,-3660,-5504
5.221902,-2657,-3366,-4926
5.223102,-2759,-2698,-4558
5.224303,-2782,-2009,-4432
5.225503,-2753,-1436,-4337
5.226704,-2671,-1099,-4407
5.227904,-2337,-535,-4790
5.229105,-2440,-98,-4746
5.206456,-2262,130,-4989
5.207657,-2118,529,-5252
5.208857,-2045,827,-5278
5.210058,-1931,1193,-5462
5.211258,-1816,1149,-5692
5.212459,-1774,1373,-5757
5.213659,-1668,1571,-5807
5.214860,-1608,1653,-5818
5.216060,-1543,1791,-5797
5.217261,-1491,1954,-5674
5.218461,-1427,2057,-5405
5.219662,-1322,2265,-4998
5.220862,-1268,2525,-4760
5.222063,-1152,2813,-4145
5.223263,-1077,3003,-3446
5.224464,-955,3341,-2582
5.225664,-881,3667,-2379
5.226865,-390,3818,-1829
5.228065,417,4156,-1127
5.229266,883,4647,-583
5.253364,1680,5352,1153
5.254564,1941,5805,3802
5.255765,1514,6851,7368
5.256965,1252,7871,9207
5.258166,970,8287,12647
5.259366,907,9039,15143
5.260567,924,9692,16106
5.261767,1048,10492,17580
5.262968,1307,10621,18438
5.264168,1708,11184,18627
5.265369,1764,11780,18321
5.266569,2120,12027,16718
5.267770,2202,11866,13864
5.268970,1974,11452,12300
5.270171,1382,10864,10372
5.271371,706,10379,9217
5.272572,-208,9660,8533
5.273772,-569,8775,6981
5.274973,-1616,8304,5400
5.276173,-2571,7286,3861
5.253568,-2999,6286,3022
5.254768,-3768,5239,1187
5.255969,-4258,4780,-841
5.257169,-4434,3829,-1812
5.258369,-4569,2917,-3753
5.259570,-4516,2520,-5664
5.260770,-4337,1646,-7467
5.261971,-4186,893,-8386
5.263171,-3885,513,-9965
5.264372,-3528,-258,-11296
5.265572,-3389,-952,-11958
5.266773,-3115,-1637,-13011
5.267973,-2890,-1959,-13885
5.269174,-2716,-2626,-14798
5.270374,-2629,-3248,-14958
5.271575,-2487,-3556,-15479
5.272775,-2336,-4117,-15844
5.273976,-2297,-4601,-15981
5.275176,-2218,-5052,-16203
5.276377,-2167,-5261,-16283
5.304715,-2112,-5618,-16304
5.305916,-2046,-5943,-16256
5.307116,-1920,-6073,-16072
5.308317,-1799,-6315,-15612
5.309517,-1749,-6418,-15208
5.310718,-1655,-6155,-13878
5.311918,-1544,-6131,-12347
5.313119,-1427,-5612,-10842
5.314319,-1222,-4895,-10272
5.315519,-1062,-4551,-9182
5.316720,-980,-3898,-8157
5.317920,-989,-3230,-7680
5.319121,-1034,-2644,-6743
5.320321,-1069,-2231,-5827
5.321522,-1101,-1570,-5366
5.322722,-1122,-924,-4606
5.323923,-1161,-582,-3914
5.325123,-1121,94,-3349
5.326324,-1078,728,-3092
5.327524,-992,1286,-2700
5.354395,-907,1583,-2454
5.355596,-872,2005,-2375
5.356796,-807,2334,-2370
5.357997,-749,2509,-2440
5.359197,-665,2741,-2602
5.360398,-651,2934,-2694
5.361598,-637,3005,-2901
5.362799,-571,3121,-3182
5.363999,-515,3294,-3348
5.365200,-336,3428,-3719
5.366400,-191,3463,-3968
5.367601,-89,3523,-4293
5.368801,-44,3515,-4163
5.370002,3,3507,-4138
5.371202,6,3449,-4112
5.372403,1,3361,-4071
5.373603,-30,3232,-3994
5.374804,-41,3170,-3897
5.376004,-26,3041,-3597
5.377205,46,2910,-3805
5.417908,265,2848,-3821
5.419108,554,2764,-3734
5.420309,779,2741,-3612
5.421509,1169,2770,-3188
5.422710,1518,2858,-2491
5.423910,1668,2979,-1562
5.425111,1845,3172,-1013
5.426311,1881,3280,338
5.427512,1708,3538,1884
5.428712,1552,3804,2749
5.429913,1258,4222,4487
5.431113,1178,4310,5876
5.432314,1507,4718,6390
5.433514,1463,5034,7253
5.434715,1658,5187,7894
5.435915,1755,5584,8428
5.437116,1820,6099,8642
5.438316,1971,6895,8812
5.439517,2127,7045,8462
5.440717,2178,7595,8077
5.464120,2161,7860,7062
5.465321,1915,7918,6091
5.466521,1520,7957,5419
5.467722,1265,7881,5106
5.468922,721,7833,4370
5.470123,186,7569,3574
5.471323,-82,7238,3125
5.472524,-552,6831,2258
5.473724,-977,6595,1300
5.474925,-1366,6098,305
5.476125,-1531,5534,-114
5.477326,-1781,5242,-1110
5.478526,-1980,4682,-2149
5.479727,-2055,4067,-2662
5.480927,-2195,3447,-3637
5.482127,-2318,3135,-4616
5.483328,-2406,2574,-5591
5.484528,-2443,1983,-5941
5.485729,-2514,1676,-6786
5.486929,-2516,1116,-7561
5.514064,-2523,527,-7955
5.515264,-2478,-45,-8687
5.516465,-2421,-308,-9313
5.517665,-2108,-746,-9900
5.518866,-2163,-1185,-10155
5.520066,-2006,-1397,-10571
5.521267,-1833,-1787,-10931
5.522467,-1752,-2152,-11099
5.523668,-1551,-2321,-11331
5.524868,-1427,-2601,-11408
5.526069,-1386,-2870,-11382
5.527269,-1327,-3117,-11356
5.528470,-1275,-3209,-11216
5.529670,-1299,-3411,-10908
5.530871,-1292,-3565,-10727
5.532071,-1296,-3598,-10329
5.533271,-1255,-3693,-9867
5.534472,-1224,-3722,-9569
5.535672,-1193,-3672,-8982
5.536873,-1089,-3630,-8386
5.514299,-966,-3481,-7833
5.515499,-880,-3286,-7571
5.516700,-716,-2917,-7046
5.517900,-655,-2851,-6479
5.519100,-617,-2328,-6198
5.520301,-610,-1728,-5575
5.521501,-603,-1430,-5219
5.522702,-602,-927,-5194
5.523902,-587,-635,-5260
5.525103,-612,-507,-5442
5.526303,-636,-325,-5660
5.527504,-655,-183,-5776
5.528704,-702,-17,-5959
5.529905,-742,69,-6089
5.531105,-796,213,-6166
5.532306,-837,339,-6276
5.533506,-939,384,-6426
5.534707,-1006,481,-6574
5.535907,-1036,517,-6687
5.537108,-1062,445,-6925
5.543654,-1084,381,-7262
5.544855,-812,265,-7452
5.546055,-1018,137,-7779
5.547256,-993,80,-8035
5.548456,-1048,-41,-8158
5.549657,-1105,-131,-8194
5.550857,-1233,-198,-8218
5.552058,-1310,-196,-8197
5.553258,-1340,-215,-8176
5.554459,-1357,-186,-8100
5.555659,-1366,-170,-7960
5.556860,-1382,-111,-7784
5.558060,-1367,-14,-7665
5.559261,-1284,20,-7414
5.560461,-1141,148,-7094
5.561661,-817,323,-6869
5.562862,-945,590,-6252
5.564062,-684,746,-5623
5.565263,-226,1112,-4846
5.566463,77,1622,-4420
5.596226,676,2183,-2995
5.597426,1137,2655,-1068
5.598626,1285,3555,121
5.599827,1207,4523,2987
5.601027,770,5039,6249
5.602228,391,6033,9651
5.603428,389,7036,11056
5.604629,694,8032,13610
5.605829,1027,8411,15682
5.607030,1168,9319,16567
5.608230,1540,10229,18133
5.609431,1992,10678,19031
5.610631,2414,11597,19270
5.611832,2590,12446,19423
5.613032,2746,12835,18809
5.614233,2637,13356,17138
5.615433,2350,13226,16054
5.616634,1429,12812,13937
5.617834,385,12495,12550
5.619035,-834,11746,11481
5.656030,-1450,10839,10621
5.657230,-2727,10351,8800
5.658431,-3942,9342,6900
5.659631,-4500,8287,5955
5.660832,-5468,7250,4142
5.662032,-6233,6697,2006
5.663233,-6768,5636,-80
5.664433,-6943,4620,-1316
5.665634,-7169,4193,-3493
5.666834,-7221,3144,-5474
5.668035,-7209,2215,-6467
5.669235,-7093,1185,-8563
5.670436,-6962,803,-10303
5.671636,-6563,-103,-11879
5.672837,-6454,-876,-12737
5.674037,-6168,-1327,-14125
5.675238,-5941,-2177,-15303
5.676438,-5816,-2926,-15835
5.677638,-5506,-3834,-16750
5.678839,-5096,-4057,-17743
5.732153,-4652,-4719,-18161
5.733353,-4491,-5395,-18830
5.734554,-3976,-5716,-19475
5.735754,-3393,-6237,-20038
5.736954,-3107,-6756,-20151
5.738155,-2628,-7246,-20159
5.739355,-2339,-7514,-19728
5.740556,-2283,-7961,-19328
5.741756,-2313,-8283,-18083
5.742957,-2539,-8415,-16287
5.744157,-2511,-8591,-14783
5.745358,-2504,-8494,-14078
5.746558,-2405,-8043,-12711
5.747759,-2109,-7587,-11335
5.748959,-2010,-6865,-10773
5.750160,-1922,-6179,-9747
5.751360,-1904,-5855,-8861
5.752561,-1903,-5172,-8137
5.753761,-1920,-4463,-7563
5.754962,-2015,-4081,-6745
5.732320,-2206,-3388,-6000
5.733520,-2347,-2704,-5674
5.734721,-2619,-2031,-5158
5.735921,-2810,-1685,-4747
5.737122,-2864,-1064,-4662
5.738322,-2867,-491,-4646
5.739523,-2837,-242,-4725
5.740723,-2774,232,-5018
5.741924,-2723,662,-5204
5.743124,-2591,1055,-5478
5.744325,-2500,1217,-5771
5.745525,-2449,1503,-5908
5.746726,-2378,1763,-6181
5.747926,-2321,1851,-6374
5.749127,-2288,2047,-6504
5.750327,-2287,2222,-6539
5.751528,-2278,2304,-6543
5.752728,-2276,2454,-6428
5.753929,-2555,2598,-6330
5.755129,-2420,2738,-6091
5.783838,-2488,2805,-5823
5.785039,-2403,2969,-5478
5.786239,-2320,3113,-5328
5.787440,-2070,3184,-5131
5.788640,-1668,3351,-4871
5.789841,-1144,3483,-4671
5.791041,-691,3642,-4168
5.792242,132,3783,-3341
5.793442,894,4174,-1937
5.794642,1154,4655,-1009
5.795843,1336,5192,1396
5.797043,925,5555,4481
5.798244,582,6179,6255
5.799444,-69,6774,9805
5.800645,-211,7085,12822
5.801845,118,7636,15066
5.803046,413,8084,15928
5.804246,1100,8279,17324
5.805447,1723,8696,18305
5.806647,2006,9130,18762
5.784021,2460,9580,19496
5.785222,2747,9847,19828
5.786422,2905,10429,19417
5.787623,2963,10918,18496
5.788823,2641,10939,16325
5.790024,1777,10803,14172
5.791224,1274,10464,13430
5.792425,208,9998,12280
5.793625,-907,9656,10957
5.794826,-2252,8984,9062
5.796026,-2632,8289,8204
5.797227,-3673,7900,6322
5.798427,-4587,7065,4367
5.799628,-4970,6187,3296
5.800828,-5526,5216,1148
5.802029,-5908,4834,-1091
5.803229,-5978,4067,-3167
5.804430,-6069,3297,-4253
5.805630,-6033,2922,-6158
5.806831,-5949,2163,-7980
5.834413,-5875,1445,-8864
5.835614,-5721,872,-10430
5.836814,-5530,458,-11867
5.838015,-5170,-199,-12532
5.839215,-5212,-879,-13854
5.840416,-5025,-1200,-14945
5.841616,-4709,-1773,-15907
5.842817,-4503,-2335,-16341
5.844017,-4059,-2888,-17225
5.845218,-3582,-3129,-17914
5.846418,-3344,-3666,-18147
5.847619,-2798,-4139,-18415
5.848819,-2238,-4364,-18507
5.850020,-1821,-4854,-18152
5.851220,-1655,-5324,-17811
5.852421,-1513,-5504,-16787
5.853621,-1539,-5740,-15048
5.854822,-1558,-5845,-14103
5.856022,-1549,-5738,-12229
5.857223,-1437,-5635,-10611
5.884382,-1260,-5332,-9095
5.885582,-1153,-4903,-8570
5.886782,-939,-4656,-7324
5.887983,-746,-4121,-6166
5.889183,-667,-3521,-5672
5.890384,-537,-2874,-4717
5.891584,-457,-2522,-3920
5.892785,-470,-1792,-3259
5.893985,-511,-912,-2682
5.895186,-541,-428,-1895
5.896386,-600,486,-1303
5.897587,-600,1352,-1132
5.898787,-583,1973,-1046
5.899988,-510,2210,-1339
5.901188,-460,2508,-1848
5.902389,-379,2643,-2183
5.903589,-291,2631,-2817
5.904790,-221,2653,-3224
5.905990,-223,2625,-3451
5.907191,-148,2640,-3901
5.884504,-173,2648,-4126
5.885705,-167,2657,-4249
5.886905,-201,2612,-4571
5.888106,-281,2532,-4927
5.889306,-375,2341,-5319
5.890507,-428,2038,-5550
5.891707,-584,1578,-6006
5.892908,-741,1422,-6486
5.894108,-792,1030,-6722
5.895309,-909,620,-7210
5.896509,-958,426,-7697
5.897710,-1002,117,-8116
5.898910,-1016,-134,-8345
5.900111,-1048,-494,-8709
5.901311,-1096,-434,-8948
5.902511,-1113,-579,-9048
5.903712,-1141,-673,-9236
5.904912,-1182,-760,-9318
5.906113,-1222,-793,-9328
5.907313,-1238,-824,-9320
5.956568,-1272,-826,-9279
5.957768,-1299,-800,-9114
5.958969,-1288,-747,-9027
5.960169,-1313,-688,-8818
5.961370,-1358,-663,-8597
5.962570,-1382,-628,-8194
5.963771,-1414,-567,-8075
5.964971,-1475,-495,-7711
5.966172,-1521,-329,-7138
5.967372,-1540,-88,-6824
5.968573,-1568,170,-6119
5.969773,-1563,327,-5418
5.970973,-1307,690,-4802
5.972174,-1456,1098,-4300
5.973374,-1253,1273,-3562
5.974575,-964,1715,-2809
5.975775,-767,2146,-2380
5.976976,-289,2635,-1418
5.978176,284,2942,-195
5.979377,527,3564,1339
6.003819,777,4268,2496
6.005019,811,4654,4859
6.006219,725,5463,7320
6.007420,659,6297,8605
6.008620,718,6970,10968
6.009821,998,7388,13025
6.011021,1447,7947,13825
6.012222,1554,8439,15106
6.013422,1883,8674,16054
6.014623,2227,9161,16718
6.015823,2397,9636,16950
6.017024,2678,10135,17091
6.018224,2847,10403,16592
6.019425,2845,10892,15276
6.020625,2723,10998,14411
6.021826,2157,10959,12790
6.023026,1335,10698,11734
6.024227,899,10224,11284
6.025427,-133,9927,10216
6.026628,-1161,9278,8928
6.048571,-1644,8577,8194
6.049772,-2594,7785,6610
6.050972,-3465,7364,4918
6.052172,-4173,6509,3298
6.053373,-4458,5666,2310
6.054573,-4870,5281,404
6.055774,-5116,4524,-1413
6.056974,-5154,3828,-2296
6.058175,-5174,3167,-3920
6.059375,-5201,2865,-5375
6.060576,-5191,2149,-6865
6.061776,-5220,1511,-7364
6.062977,-5245,1158,-8526
6.064177,-5272,539,-9788
6.065378,-5269,-137,-10347
6.066578,-5192,-684,-11402
6.067779,-5159,-1006,-12317
6.068979,-5083,-1588,-13328
6.070180,-4914,-2052,-13762
6.071380,-4696,-2301,-14492
6.095074,-4363,-2813,-15396
6.096275,-4159,-3226,-15812
6.097475,-3700,-3670,-16504
6.098675,-3242,-3815,-17027
6.099876,-2753,-4167,-17219
6.101076,-2598,-4499,-17511
6.102277,-2299,-4651,-17517
6.103477,-2094,-4995,-17200
6.104678,-2028,-5318,-16917
6.105878,-1938,-5469,-15999
6.107079,-1840,-5663,-14767
6.108279,-1929,-5666,-13779
6.109480,-1842,-5571,-12188
6.110680,-1612,-5438,-10851
6.111881,-1350,-5103,-9702
6.113081,-1232,-4616,-9232
6.114282,-1179,-3849,-8144
6.115482,-1177,-3743,-7001
6.116683,-1145,-2957,-6471
6.117883,-1029,-2180,-5474
6.095322,-939,-1844,-4792
6.096522,-907,-1322,-4354
6.097723,-922,-938,-4356
6.098923,-921,-786,-4167
6.100124,-942,-465,-4073
6.101324,-963,-179,-4002
6.102525,-1014,150,-3967
6.103725,-1121,299,-3944
6.104926,-1188,613,-4235
6.106126,-1203,880,-4273
6.107327,-1188,996,-4670
6.108527,-1152,1167,-5230
6.109728,-1128,1250,-5539
6.110928,-1091,1231,-6113
6.112129,-1083,1192,-6667
6.113329,-1092,1113,-6930
6.114530,-1147,997,-7363
6.115730,-1239,950,-7712
6.116931,-1351,815,-8061
6.118131,-1410,661,-8227
6.143013,-1504,603,-8412
6.144214,-1614,459,-8498
6.145414,-1707,337,-8604
6.146615,-1756,270,-8594
6.147815,-1867,252,-8486
6.149016,-1953,234,-8295
6.150216,-1992,272,-8190
6.151417,-2051,302,-7881
6.152617,-2170,378,-7579
6.153818,-2248,485,-7405
6.155018,-2314,612,-7043
6.156219,-2312,700,-6635
6.157419,-2250,901,-6197
6.158620,-2216,1116,-5935
6.159820,-2071,1455,-5427
6.161021,-1910,1464,-4915
6.162221,-1775,1674,-4653
6.163422,-1457,1895,-4066
6.164622,-1019,2053,-3408
6.165823,-438,2347,-2796
6.169310,-160,2728,-2015
6.170511,250,2974,-544
6.171711,328,3507,1294
6.172912,331,4069,2325
6.174112,261,4655,4621
6.175313,259,4987,6954
6.176513,299,5567,9427
6.177714,379,6221,10451
6.178914,672,6529,12623
6.180115,1128,7264,14509
6.181315,1409,7845,15285
6.182516,1986,8381,16453
6.183716,2507,8610,17308
6.184917,2937,8980,17960
6.186117,3097,9414,18387
6.187318,3398,9695,18813
6.188518,3500,10309,18900
6.189719,3466,10957,18766
6.190919,3254,11500,17834
6.192119,2692,11460,16162
6.220612,1736,11313,15254
6.221812,1268,10899,13866
6.223013,178,10592,12787
6.224213,-987,9883,11462
6.225414,-1596,9109,10706
6.226614,-2792,8193,9140
6.227815,-3881,7896,7442
6.229015,-4918,6984,6541
6.230216,-5360,6013,4792
6.231416,-6149,5564,2809
6.232617,-6684,4648,722
6.233817,-6920,3826,-307
6.235018,-7278,2902,-2267
6.236218,-7528,2594,-4194
6.237419,-7597,1800,-5105
6.238619,-7746,1023,-6990
6.239820,-7802,657,-8671
6.241020,-7746,-8,-10445
6.242221,-7687,-750,-11236
6.243421,-7497,-1087,-12986
6.271271,-7233,-1694,-14407
6.272472,-7030,-2271,-15157
6.273672,-6591,-2853,-16678
6.274873,-6076,-3112,-18118
6.276073,-5401,-3554,-19305
6.277274,-5048,-3942,-19908
6.278474,-4385,-4156,-20746
6.279675,-3803,-4519,-21598
6.280875,-3516,-4841,-21917
6.282076,-3024,-5175,-22180
6.283276,-2626,-5337,-22314
6.284477,-2481,-5724,-22099
6.285677,-2328,-6139,-21816
6.286878,-2374,-6339,-20664
6.288078,-2435,-6549,-18917
6.289279,-2345,-6628,-17842
6.290479,-2154,-6578,-15944
6.291679,-2059,-6309,-14337
6.292880,-2041,-5749,-12775
6.294080,-2003,-5098,-11813
6.297949,-1920,-4791,-10290
6.299150,-1892,-4216,-9187
6.300350,-1894,-3737,-8639
6.301550,-1859,-3211,-7567
6.302751,-1792,-2937,-6467
6.303951,-1803,-2454,-5993
6.305152,-1883,-1953,-5100
6.306352,-1992,-1732,-4252
6.307553,-2092,-1265,-3577
6.308753,-2102,-786,-3285
6.309954,-2072,-333,-2944
6.311154,-1997,-190,-2717
6.312355,-1937,149,-2644
6.313555,-1797,474,-2628
6.314756,-1668,590,-2750
6.315956,-1521,826,-2884
6.317157,-1450,1037,-2953
6.318357,-1344,1132,-3115
6.319558,-1259,1292,-3339
6.320758,-1230,1452,-3461
6.342067,-1123,1619,-3622
6.343267,-969,1701,-3695
6.344468,-872,1930,-3724
6.345668,-834,2167,-3664
6.346869,-786,2287,-3541
6.348069,-753,2606,-3316
6.349270,-739,2891,-3193
6.350470,-640,3221,-2942
6.351670,-510,3389,-2650
6.352871,-325,3701,-2208
6.354071,-224,4022,-2175
6.355272,133,4163,-1965
6.356472,732,4497,-1585
6.357673,1103,4835,-1283
6.358873,1811,5265,-274
6.360074,2208,5515,1296
6.361274,2232,6033,3367
6.362475,1938,6630,4647
6.363675,1496,6880,7159
6.364876,1249,7374,9262
6.342234,1235,7720,9988
6.343434,1362,8112,11026
6.344635,1660,8101,11696
6.345835,1863,8333,12004
6.347035,2182,8569,12515
6.348236,2412,8687,12812
6.349436,2646,8961,12830
6.350637,2720,9224,12684
6.351837,2805,9338,11801
6.353038,2730,9324,10316
6.354238,2553,9110,9634
6.355439,2009,8688,8676
6.356639,1323,8422,7863
6.357840,555,7827,6923
6.359040,186,7201,6419
6.360241,-478,6411,5398
6.361441,-1053,6328,4311
6.362642,-1323,5783,3800
6.363842,-1809,5195,2787
6.365043,-2232,4908,1741
6.386204,-2611,4364,553
6.387404,-2787,3809,-21
6.388605,-3096,3523,-1126
6.389805,-3366,2984,-2368
6.391006,-3470,2411,-2970
6.392206,-3688,1874,-4218
6.393407,-3815,1603,-5369
6.394607,-3919,1084,-6450
6.395808,-3941,611,-7114
6.397008,-3937,372,-8243
6.398209,-3881,-73,-9255
6.399409,-3816,-471,-9726
6.400610,-3733,-802,-10673
6.401810,-3656,-987,-11593
6.403011,-3353,-1354,-12300
6.404211,-3460,-1731,-12937
6.405412,-3219,-1907,-13767
6.406612,-2942,-2246,-14533
6.407812,-2786,-2547,-14860
6.409013,-2468,-2966,-15394
6.431679,-2190,-2959,-15810
6.432879,-1812,-3216,-15930
6.434080,-1813,-3484,-16106
6.435280,-1589,-3611,-16069
6.436481,-1471,-3908,-15727
6.437681,-1428,-4178,-15419
6.438882,-1430,-4272,-14422
6.440082,-1450,-4363,-13112
6.441283,-1119,-4347,-12388
6.442483,-1102,-4152,-11170
6.443684,-877,-4047,-9955
6.444884,-822,-3656,-8786
6.446085,-810,-3142,-8158
6.447285,-776,-2340,-6971
6.448486,-697,-2257,-6020
6.449686,-651,-1838,-5682
6.450887,-645,-1549,-5169
6.452087,-691,-1413,-4774
6.453288,-724,-1132,-4421
6.454488,-765,-838,-4277
6.495359,-783,-659,-4014
6.496560,-796,-292,-3816
6.497760,-776,36,-3754
6.498961,-735,365,-3750
6.500161,-644,519,-3946
6.501361,-573,821,-4187
6.502562,-552,1016,-4297
6.503762,-517,1103,-4655
6.504963,-499,1191,-5065
6.506163,-489,1231,-5274
6.507364,-448,1225,-5682
6.508564,-417,1178,-6052
6.509765,-429,1092,-6217
6.510965,-475,1003,-6477
6.512166,-518,951,-6702
6.513366,-597,854,-6877
6.514567,-631,804,-6909
6.515767,-704,516,-6950
6.516968,-759,755,-6914
6.518168,-797,771,-6877
6.539307,-858,767,-6772
6.540508,-901,798,-6555
6.541708,-951,861,-6347
6.542909,-937,937,-6247
6.544109,-898,1233,-6005
6.545310,-732,1099,-5802
6.546510,-353,1244,-5684
6.547710,-261,1468,-5412
6.548911,219,1595,-4926
6.550111,829,1903,-4203
6.551312,1105,2326,-3684
6.552512,1519,2838,-2231
6.553713,1658,3189,-251
6.554913,1339,3847,968
6.556114,1253,4565,3916
6.557314,869,4902,6897
6.558515,741,5512,9452
6.559715,767,6136,10528
6.560916,1024,6900,12266
6.562116,1427,6920,13713
6.589650,1646,7501,14357
6.590851,2029,8146,15537
6.592051,2361,8480,16463
6.593252,2591,9090,17030
6.594452,2663,9702,16938
6.595653,2824,9986,16170
6.596853,2889,10388,14547
6.598054,2831,10401,13549
6.599254,2403,10242,11874
6.600455,1763,10120,11127
6.601655,852,9700,10624
6.602856,332,9168,10168
6.604056,-722,8850,9136
6.605257,-1768,8154,7923
6.606457,-2247,7386,7238
6.607657,-3172,6601,5772
6.608858,-3949,6210,4254
6.610058,-4815,5396,2714
6.611259,-4908,4665,1736
6.612459,-5366,4309,-68
6.615392,-5639,3609,-1862
6.616592,-5718,2956,-2782
6.617792,-5786,2413,-4548
6.618993,-5858,2035,-6224
6.620193,-5919,1366,-7053
6.621394,-5960,678,-8625
6.622594,-5954,366,-10127
6.623795,-5897,-230,-11467
6.624995,-5832,-834,-12150
6.626196,-5653,-1370,-13565
6.627396,-5380,-1651,-14781
6.628597,-4988,-2202,-15383
6.629797,-4871,-2573,-16528
6.630998,-4372,-2784,-17561
6.632198,-3847,-3149,-18202
6.633399,-3585,-3467,-18610
6.634599,-3220,-3632,-18926
6.635800,-2950,-3997,-19216
6.637000,-2821,-4328,-19267
6.638201,-2594,-4738,-19188
6.668029,-2436,-4930,-18777
6.669230,-2306,-5318,-17909
6.670430,-2279,-5576,-17279
6.671631,-2203,-5640,-15529
6.672831,-2035,-5650,-13798
6.674032,-1909,-5439,-13035
6.675232,-1636,-5116,-11649
6.676433,-1664,-4877,-10343
6.677633,-1799,-4314,-8861
6.678834,-1806,-3564,-8182
6.680034,-1679,-3158,-6999
6.681235,-1534,-2506,-6178
6.682435,-1495,-2042,-5899
6.683636,-1451,-1657,-5469
6.684836,-1444,-1473,-5037
6.686037,-1469,-1119,-4828
6.687237,-1562,-743,-4459
6.688438,-1718,-524,-4139
6.689638,-1818,-94,-3902
6.690839,-1839,303,-3901
6.668272,-1791,736,-4118
6.669472,-1662,805,-4473
6.670673,-1341,1050,-4964
6.671873,-1452,1210,-5271
6.673074,-1317,1244,-5854
6.674274,-1210,1289,-6390
6.675475,-1182,1285,-6618
6.676675,-1178,1276,-7083
6.677876,-1234,1212,-7476
6.679076,-1295,1138,-7612
6.680277,-1393,1041,-7847
6.681477,-1546,983,-7950
6.682678,-1636,849,-8072
6.683878,-1663,697,-8126
6.685079,-1751,654,-8035
6.686279,-1843,592,-7822
6.687479,-1886,559,-7677
6.688680,-1984,592,-7409
6.689880,-2041,619,-7052
6.691081,-1976,703,-6882
6.714671,-1875,815,-6641
6.715872,-1395,882,-6498
6.717072,-540,1052,-6104
6.718273,256,1351,-5754
6.719473,911,1869,-4428
6.720674,1256,2176,-2251
6.721874,1026,2830,673
6.723075,740,3585,2419
6.724275,-79,3957,6122
6.725476,-682,4649,9430
6.726676,-822,5271,10802
6.727877,-696,5953,13272
6.729077,-51,6320,15210
6.730278,879,7089,16733
6.731478,1278,7874,17193
6.732679,2105,8190,18344
6.733879,2555,8802,19469
6.735080,2706,9451,19965
6.736280,2934,10077,20658
6.737481,3029,10588,20749
6.780286,2992,11327,19906
6.781486,2741,11636,18756
6.782687,2074,11545,16358
6.783887,1084,11310,14339
6.785088,574,10741,13641
6.786288,-507,9858,12272
6.787489,-1721,9598,10420
6.788689,-3064,8804,9415
6.789890,-3368,7992,7435
6.791090,-4271,7525,5533
6.792291,-5048,6669,3416
6.793491,-5350,5865,2315
6.794692,-5846,4926,233
6.795892,-6162,4575,-1827
6.797093,-6247,3873,-2866
6.798293,-6397,3061,-4872
6.799494,-6531,2698,-6659
6.800694,-6543,1989,-8470
6.801895,-6512,1251,-9339
6.803095,-6444,897,-11029
6.780441,-6340,235,-12428
6.781641,-6256,-367,-13214
6.782842,-6045,-910,-14643
6.784042,-5766,-1231,-15996
6.785243,-5484,-1758,-17166
6.786443,-5283,-2246,-17717
6.787644,-4795,-2452,-18756
6.788844,-4192,-2868,-19710
6.790045,-3358,-3288,-20098
6.791245,-3231,-3670,-20630
6.792446,-2664,-3863,-20959
6.793646,-2231,-4270,-20983
6.794847,-2092,-4718,-20715
6.796047,-1981,-4976,-19844
6.797248,-2161,-5388,-18448
6.798448,-2244,-5627,-17455
6.799649,-2352,-5681,-15472
6.800849,-2173,-5634,-13895
6.802050,-2012,-5448,-12748
6.803250,-1734,-5060,-12015
6.846584,-1692,-4844,-10529
6.847784,-1628,-4249,-9117
6.848985,-1568,-3544,-8435
6.850185,-1371,-2948,-7241
6.851386,-1148,-2536,-6251
6.852586,-1117,-1960,-5670
6.853787,-1052,-1485,-4813
6.854987,-1137,-1285,-4080
6.856188,-1280,-873,-3386
6.857388,-1360,-423,-3054
6.858588,-1477,-214,-2494
6.859789,-1506,177,-2290
6.860989,-1503,549,-2278
6.862190,-1435,830,-2366
6.863390,-1278,974,-2649
6.864591,-1108,1166,-3062
6.865791,-1031,1283,-3316
6.866992,-884,1041,-3952
6.868192,-723,1277,-4621
6.869393,-643,1218,-4946
6.908087,-540,1160,-5461
6.909288,-469,1102,-5889
6.910488,-453,1007,-6326
6.911688,-433,898,-6305
6.912889,-438,858,-6507
6.914089,-436,808,-6642
6.915290,-431,768,-6647
6.916490,-385,756,-6634
6.917691,-266,770,-6589
6.918891,42,855,-6537
6.920092,261,1016,-6307
6.921292,904,1133,-5992
6.922493,1635,1519,-5137
6.923693,1922,2087,-4453
6.924894,2160,2779,-2398
6.926094,1776,3154,303
6.927295,884,3852,3404
6.928495,574,4447,4931
6.929696,59,4767,7538
6.930896,2,5400,9560
6.954023,68,5960,10280
6.955223,332,6495,11450
6.956424,725,6839,12337
6.957624,1222,7448,12731
6.958825,1437,8079,13183
6.960025,1965,8326,13124
6.961226,2367,8728,12640
6.962426,2508,9078,12156
6.963626,2764,9151,10583
6.964827,2694,9120,8667
6.966027,2547,8936,7854
6.967228,2185,8554,6739
6.968428,1739,8336,5717
6.969629,1237,7807,4731
6.970829,991,7245,4227
6.972030,517,6422,3263
6.973230,10,6316,2456
6.974431,-232,5703,1773
6.975631,-709,5075,1196
6.976832,-1074,4767,348
7.005942,-1338,4190,-498
7.007142,-1437,3685,-956
7.008343,-1594,3426,-1806
7.009543,-1672,2932,-2569
7.010744,-1719,2508,-2965
7.011944,-1762,2128,-3690
7.013145,-1818,1922,-4268
7.014345,-1827,1603,-4832
7.015546,-1851,1289,-5054
7.016746,-1924,1136,-5574
7.017947,-2061,852,-6070
7.019147,-2130,534,-6307
7.020347,-2233,236,-6780
7.021548,-2338,81,-7290
7.022748,-2364,-230,-7857
7.023949,-2405,-503,-8275
7.025149,-2391,-655,-8875
7.026350,-2307,-931,-9514
7.027550,-2243,-1179,-9874
7.028751,-2071,-1298,-10508
7.006077,-1847,-1509,-11073
7.007278,-1704,-1670,-11565
7.008478,-1435,-1780,-11689
7.009679,-1231,-1848,-11923
7.010879,-1098,-1950,-12048
7.012080,-1061,-2034,-12047
7.013280,-1040,-2101,-11924
7.014481,-1067,-2201,-11724
7.015681,-1104,-2331,-11550
7.016882,-1160,-2423,-11098
7.018082,-1185,-2469,-10509
7.019283,-1154,-2522,-9762
7.020483,-1097,-2525,-9372
7.021684,-919,-2510,-8607
7.022884,-736,-2420,-7859
7.024085,-634,-2261,-7492
7.025285,-508,-2014,-6802
7.026486,-491,-1839,-6029
7.027686,-448,-1337,-5229
7.028886,-439,-838,-4897
7.006162,-462,-380,-4521
7.007363,-569,-371,-4459
7.008563,-611,-220,-4528
7.009763,-650,-106,-4703
7.010964,-635,-50,-4944
7.012164,-571,92,-5304
7.013365,-529,254,-5234
7.014565,-493,308,-5388
7.015766,-507,469,-5574
7.016966,-533,619,-5659
7.018167,-590,741,-5880
7.019367,-659,786,-6164
7.020568,-737,816,-6597
7.021768,-758,793,-6766
7.022969,-833,775,-7202
7.024169,-882,709,-7646
7.025370,-893,625,-7862
7.026570,-913,516,-8238
7.027771,-972,482,-8557
7.028971,-1266,406,-8940
7.117137,-1094,272,-8794
7.118337,-1146,224,-8983
7.119538,-1177,167,-9035
7.120738,-1203,80,-9015
7.121939,-1252,-228,-8972
7.123139,-1307,-33,-8794
7.124340,-1367,-99,-8472
7.125540,-1404,-154,-8338
7.126741,-1500,-174,-7971
7.127941,-1566,-146,-7484
7.129142,-1615,-106,-7242
7.130342,-1612,-79,-6850
7.131543,-1454,27,-6514
7.132743,-1274,223,-6317
7.133944,-793,528,-5821
7.135144,-209,691,-4938
7.136345,420,1172,-3630
7.137545,687,1818,-2734
7.138746,962,2711,-525
7.139946,912,3015,2127
7.117271,739,3899,3560
7.118471,247,4770,6729
7.119672,-190,5192,9636
7.120872,-259,6038,12008
7.122073,-125,6908,12955
7.123273,384,7279,14452
7.124474,1110,8127,15339
7.125674,1528,8887,15613
7.126875,2386,9481,16135
7.128075,2943,9719,16634
7.129276,3104,10226,17077
7.130476,3166,10856,17104
7.131677,3294,11192,16969
7.132877,3213,11831,16130
7.134078,3013,12063,15470
7.135278,2242,11967,13970
7.136479,1215,11845,12698
7.137679,110,11459,11947
7.138880,-563,10854,11234
7.140080,-1806,10509,9865
7.169677,-3013,9770,8174
7.170877,-3596,8883,7316
7.172078,-4615,7879,5613
7.173278,-5393,7497,3781
7.174479,-5995,6564,1756
7.175679,-6315,5561,707
7.176880,-6705,5086,-1365
7.178080,-6924,4213,-3306
7.179280,-7004,3259,-4280
7.180481,-7121,2541,-6247
7.181681,-7085,1845,-8119
7.182882,-7061,956,-9010
7.184082,-6855,88,-10681
7.185283,-6604,-352,-12349
7.186483,-6296,-1183,-13894
7.187684,-6155,-2023,-14504
7.188884,-5798,-2620,-15697
7.190085,-5325,-2995,-16842
7.191285,-5106,-3561,-17349
7.192486,-4672,-4145,-18126
7.213013,-4228,-4406,-18849
7.214214,-3784,-4906,-19435
7.215414,-3584,-5333,-19575
7.216615,-3216,-5789,-19637
7.217815,-2949,-5954,-19420
7.219016,-2807,-6286,-19250
7.220216,-2615,-6605,-18569
7.221417,-2481,-6702,-17466
7.222617,-2367,-6790,-15673
7.223818,-2332,-6754,-14908
7.225018,-2084,-6668,-13207
7.226218,-1722,-6404,-11714
7.227419,-1539,-5960,-11066
7.228619,-1224,-5454,-9865
7.229820,-1255,-5194,-8377
7.231020,-1285,-4488,-7026
7.232221,-1256,-3677,-6383
7.233421,-1196,-3285,-5279
7.234622,-1088,-2607,-4462
7.235822,-1071,-2131,-4211
7.261142,-1090,-1752,-3818
7.262342,-1110,-1574,-3525
7.263543,-1150,-1249,-3431
7.264743,-1197,-952,-3259
7.265944,-1256,-802,-3257
7.267144,-1277,-527,-3359
7.268345,-1251,-291,-3491
7.269545,-1211,-184,-3840
7.270746,-1137,-25,-4321
7.271946,-1114,80,-4518
7.273147,-982,107,-5049
7.274347,-835,103,-5678
7.275548,-741,96,-6166
7.276748,-751,8,-6396
7.277949,-810,-8,-6838
7.279149,-889,-77,-7149
7.280349,-926,-178,-7246
7.281550,-1021,-219,-7432
7.282750,-1138,-236,-7516
7.283951,-1215,-238,-7573
7.261271,-1272,-196,-7580
7.262471,-1390,-170,-7453
7.263672,-1498,-106,-7280
7.264872,-1542,14,-7221
7.266073,-1610,183,-7047
7.267273,-1631,288,-6756
7.268474,-1536,527,-6415
7.269674,-1443,827,-6235
7.270875,-1221,999,-5738
7.272075,-989,1444,-4998
7.273276,-881,1966,-4517
7.274476,-650,2605,-3409
7.275677,-404,2954,-2085
7.276877,-91,3678,-587
7.278077,42,4432,269
7.279278,209,4850,2162
7.280478,238,5666,4313
7.281679,204,6485,5511
7.282879,162,7285,7801
7.284080,346,7695,10018
7.285424,802,8514,11782
7.286624,1079,9270,12757
7.287825,1668,9585,14062
7.289025,2045,10067,15162
7.290226,2177,10546,15615
7.291426,2386,11064,16311
7.292627,2535,11325,16459
7.293827,2599,11797,15675
7.295028,2715,12024,14805
7.296228,2657,11949,12563
7.297429,2193,11613,10700
7.298629,1875,11113,10148
7.299830,1089,10259,9402
7.301030,211,10102,8459
7.302231,-515,9350,7936
7.303431,-1229,8495,6856
7.304632,-2121,8084,5493
7.305832,-2964,7135,4100
7.307032,-3325,6151,3362
7.308233,-3973,5120,1790
7.338309,-4413,4755,-39
7.339510,-4548,3887,-861
7.340710,-4744,3116,-2590
7.341911,-4786,2768,-4162
7.343111,-4763,2022,-5755
7.344312,-4759,1244,-6503
7.345512,-4667,922,-7935
7.346713,-4540,160,-9301
7.347913,-4458,-481,-9940
7.349114,-4271,-1109,-11153
7.350314,-4084,-1411,-12224
7.351514,-3873,-2008,-13261
7.352715,-3732,-2554,-13646
7.353915,-3407,-2785,-14512
7.355116,-3003,-3191,-15141
7.356316,-2766,-3516,-15411
7.357517,-2381,-3821,-15811
7.358717,-2090,-3967,-15894
7.359918,-1976,-4217,-15833
7.361118,-1749,-4396,-15652
7.389608,-1605,-4471,-15171
7.390808,-1528,-4618,-14382
7.392009,-1521,-4680,-13865
7.393209,-1451,-4637,-12692
7.394409,-1381,-4589,-11345
7.395610,-1090,-4385,-10157
7.396810,-1145,-4099,-9405
7.398011,-885,-3938,-8249
7.399211,-658,-3523,-7226
7.400412,-545,-3030,-6697
7.401612,-379,-2517,-5735
7.402813,-249,-2247,-4925
7.404013,-209,-1740,-4625
7.405214,-168,-1310,-4069
7.406414,-254,-1068,-3538
7.407615,-317,-497,-2936
7.408815,-331,118,-2679
7.410016,-310,640,-2424
7.411216,-347,763,-2520
7.412417,-374,952,-2685
7.414211,-380,1027,-3163
7.415411,-361,1039,-3775
7.416612,-327,990,-4430
7.417812,-336,917,-4704
7.419013,-325,896,-5199
7.420213,-316,831,-5600
7.421414,-330,761,-5789
7.422614,-332,641,-6112
7.423815,-390,560,-6404
7.425015,-448,404,-6488
7.426216,-491,187,-6778
7.427416,-601,57,-7068
7.428616,-695,-189,-7366
7.429817,-727,-402,-7502
7.431017,-809,-594,-7716
7.432218,-901,-667,-8004
7.433418,-984,-813,-8015
7.434619,-1037,-974,-8218
7.435819,-1087,-995,-8506
7.437020,-1139,-1031,-8659
7.468482,-1172,-1048,-8705
7.469682,-1225,-1042,-8824
7.470883,-1319,-1035,-8827
7.472083,-1353,-1003,-8815
7.473284,-1452,-944,-8705
7.474484,-1562,-920,-8595
7.475684,-1656,-793,-8445
7.476885,-1689,-660,-8306
7.478085,-1751,-291,-8062
7.479286,-1722,-356,-7829
7.480486,-1706,-80,-7668
7.481687,-1539,212,-7292
7.482887,-1248,412,-6876
7.484088,-784,818,-6325
7.485288,-479,1371,-5947
7.486489,249,2188,-4841
7.487689,828,2501,-2917
7.488890,966,3444,-1678
7.490090,921,4452,1163
7.491291,458,4950,4369
7.516009,-118,5849,7575
7.517209,-270,6658,9028
7.518410,-178,7590,11521
7.519610,431,7956,13606
7.520811,817,8864,14554
7.522011,1521,9652,16447
7.523212,1964,10049,18148
7.524412,2257,10938,19563
7.525613,2345,11927,20142
7.526813,2537,12608,20720
7.528014,2597,13197,20329
7.529214,2595,13799,19607
7.530415,2321,13599,17320
7.531615,1364,13356,14595
7.532816,97,12640,12787
7.534016,-565,11705,12095
7.535217,-1871,10716,10580
7.536417,-3031,10298,8634
7.537618,-3568,9362,7617
7.538818,-4598,8254,5760
7.582269,-5526,7664,3818
7.583470,-6185,6519,1381
7.584670,-6512,5436,312
7.585871,-6825,4902,-1921
7.587071,-6964,3911,-3914
7.588272,-6983,2875,-4971
7.589472,-6965,2020,-7041
7.590673,-6790,1571,-8962
7.591873,-6406,611,-10917
7.593074,-6397,-312,-11663
7.594274,-6130,-675,-13366
7.595475,-5824,-1468,-14759
7.596675,-5665,-2226,-15387
7.597876,-5316,-2898,-16531
7.599076,-5035,-3346,-17781
7.600277,-4615,-4046,-18286
7.601477,-4520,-4620,-19083
7.602678,-4137,-4887,-19874
7.603878,-3752,-5456,-20355
7.605079,-3573,-5924,-20481
7.582406,-3227,-6163,-20691
7.583606,-2901,-6578,-20649
7.584807,-2739,-6953,-20530
7.586007,-2523,-7326,-19878
7.587208,-2398,-7444,-18707
7.588408,-2245,-7563,-16810
7.589609,-2147,-7399,-15860
7.590809,-1827,-6979,-14183
7.592010,-1593,-6880,-12787
7.593210,-1630,-6368,-12002
7.594410,-1690,-5701,-10398
7.595611,-1735,-5332,-8805
7.596811,-1656,-4573,-7453
7.598012,-1630,-3988,-6892
7.599212,-1782,-3715,-5901
7.600413,-1908,-3258,-5047
7.601613,-1939,-2781,-4601
7.602814,-1987,-2407,-3933
7.604014,-2024,-2237,-3461
7.605215,-2035,-1857,-3304
7.628752,-2000,-1468,-2971
7.629952,-1906,-1258,-2867
7.631153,-1737,-878,-2930
7.632353,-1663,-510,-3266
7.633554,-1503,-230,-3227
7.634754,-1316,-118,-3548
7.635955,-1250,105,-3968
7.637155,-1195,246,-4072
7.638355,-1166,312,-4390
7.639556,-1131,417,-4702
7.640756,-1135,530,-4818
7.641957,-1139,576,-5031
7.643157,-1134,693,-5182
7.644358,-1136,803,-5260
7.645558,-1124,903,-5412
7.646759,-1030,963,-5565
7.647959,-817,1068,-5731
7.649160,-639,1204,-5765
7.650360,-156,1301,-5667
7.651561,385,1664,-5121
7.674572,904,2186,-4639
7.675772,1046,3021,-3108
7.676973,1096,3529,-756
7.678173,719,4549,2198
7.679374,407,5617,3793
7.680574,-285,6618,6913
7.681775,-579,7021,9585
7.682975,-567,7898,10625
7.684176,-255,8712,12074
7.685376,321,9084,12903
7.686577,933,9798,13357
7.687777,1276,10462,13472
7.688978,2066,10795,13407
7.690178,2951,11369,13236
7.691379,3257,11713,13257
7.692579,3370,11859,13394
7.693780,3145,11919,13333
7.694980,2753,11955,12619
7.696180,2477,11697,12263
7.697381,1654,11452,11051
7.699957,643,10755,9907
7.701157,123,9912,9385
7.702358,-849,9036,8090
7.703558,-1739,8612,6468
7.704759,-2408,7686,4612
7.705959,-2901,6693,3923
7.707160,-3543,6171,2196
7.708360,-4001,5301,441
7.709561,-4170,4378,-439
7.710761,-4394,3556,-2067
7.711962,-4558,3153,-3713
7.713162,-4629,2268,-5248
7.714363,-4743,1500,-6025
7.715563,-4936,1119,-7376
7.716764,-5079,296,-8935
7.717964,-5092,-446,-9571
7.719165,-5041,-1051,-10827
7.720365,-4933,-1452,-12000
7.721566,-4855,-1962,-12547
7.722766,-4556,-2411,-13696
7.751891,-4141,-2634,-14675
7.753091,-3670,-2989,-15525
7.754292,-3424,-3335,-15932
7.755492,-2971,-3708,-16596
7.756693,-2622,-3719,-16914
7.757893,-2171,-3992,-17003
7.759094,-2154,-4308,-17004
7.760294,-1994,-4475,-16789
7.761495,-1930,-4795,-16247
7.762695,-1949,-5088,-15834
7.763896,-2050,-5168,-14788
7.765096,-2111,-5275,-13469
7.766297,-2079,-5301,-12261
7.767497,-1979,-5106,-11512
7.768698,-1718,-4965,-10530
7.769898,-1429,-4635,-9616
7.771099,-1353,-4182,-9297
7.772299,-1256,-3882,-8192
7.773500,-1066,-3128,-7013
7.774700,-997,-2403,-6485
7.796946,-941,-1894,-5735
7.798146,-981,-1685,-5147
7.799347,-984,-1292,-4626
7.800547,-989,-936,-4442
7.801747,-1047,-744,-4071
7.802948,-1108,-366,-3708
7.804148,-1113,51,-3590
7.805349,-1140,503,-3436
7.806549,-1125,693,-3455
7.807750,-1135,1103,-3493
7.808950,-1072,1440,-3666
7.810151,-993,1588,-4058
7.811351,-943,1830,-4439
7.812552,-900,2049,-4635
7.813752,-810,2116,-5102
7.814953,-753,2191,-5647
7.816153,-738,2216,-5818
7.817354,-726,2220,-6193
7.818554,-725,2215,-6468
7.819755,-712,2186,-6664
7.841674,-722,2110,-6757
7.842874,-763,2045,-6898
7.844075,-775,1970,-6960
7.845275,-784,1880,-6956
7.846475,-810,1803,-6873
7.847676,-870,1749,-6780
7.848876,-924,1659,-6611
7.850077,-963,1543,-6505
7.851277,-998,1497,-6277
7.852478,-962,1392,-6146
7.853678,-849,1267,-6121
7.854879,-492,1156,-6070
7.856079,83,1132,-5899
7.857280,703,1199,-5309
7.858480,949,1403,-4820
7.859681,1228,1625,-3413
7.860881,1175,2129,-1420
7.862082,1041,2700,-215
7.863282,649,3352,2310
7.864483,340,3651,4735
7.841848,201,4240,6840
7.843048,237,4793,7782
7.844249,584,5052,9250
7.845449,1142,5569,10484
7.846650,1470,6051,11017
7.847850,2124,6437,11971
7.849051,2587,6571,12939
7.850251,2658,6787,13609
7.851452,2670,7088,14102
7.852652,2704,7268,14508
7.853852,2708,7702,14225
7.855053,2707,8196,13695
7.856253,2567,8348,12199
7.857454,1982,8364,10498
7.858654,1052,8233,9295
7.859855,617,7853,8785
7.861055,-309,7623,7571
7.862256,-1155,7155,6047
7.863456,-1542,6605,5192
7.864657,-2242,6031,3509
7.886665,-2843,5606,1795
7.887866,-3110,4903,-34
7.889066,-3497,4258,-1001
7.890267,-3709,3973,-2800
7.891467,-3763,3375,-4559
7.892668,-3765,2905,-5413
7.893868,-3673,2406,-7150
7.895069,-3520,2262,-8674
7.896269,-3447,1811,-9377
7.897469,-3334,1340,-10675
7.898670,-3235,1123,-11890
7.899870,-3085,676,-12978
7.901071,-3023,232,-13406
7.902271,-2884,-251,-14229
7.903472,-2734,-448,-14920
7.904672,-2650,-904,-15201
7.905873,-2446,-1306,-15737
7.907073,-2218,-1510,-16065
7.908274,-1979,-1915,-16155
7.909474,-1868,-2278,-16150
7.932495,-1710,-2483,-15906
7.933696,-1636,-2877,-15281
7.934896,-1631,-3269,-14788
7.936097,-1662,-3498,-13560
7.937297,-1662,-3598,-11986
7.938498,-1644,-3649,-10513
7.939698,-1522,-3594,-9948
7.940899,-1351,-3514,-8771
7.942099,-1169,-3282,-7887
7.943300,-1070,-2973,-7489
7.944500,-916,-2625,-6607
7.945701,-931,-2432,-5632
7.946901,-920,-1913,-4687
7.948102,-876,-1348,-4419
7.949302,-806,-1061,-3790
7.950503,-674,-539,-3420
7.951703,-583,-135,-3311
7.952904,-460,15,-3265
7.954104,-416,286,-3216
7.955305,-373,524,-3253
7.977939,-346,714,-3356
7.979139,-350,846,-3498
7.980340,-334,1044,-3688
7.981540,-340,1228,-3781
7.982741,-336,1290,-4084
7.983941,-336,1441,-4446
7.985142,-313,1527,-4652
7.986342,-272,1600,-5045
7.987542,-238,1621,-5383
7.988743,-202,1676,-5698
7.989943,-189,1663,-5850
7.991144,-194,1650,-6102
7.992344,-179,1609,-6280
7.993545,-193,1529,-6336
7.994745,-186,1449,-6489
7.995946,-202,1410,-6553
7.997146,-216,1310,-6584
7.998347,-213,1204,-6587
7.999547,-229,1136,-6524
8.000748,-287,1049,-6390
8.021034,-297,971,-6321
8.022235,-347,888,-6102
8.023435,-393,856,-5878
8.024636,-427,794,-5487
8.025836,-442,753,-5490
8.027037,-409,753,-5180
8.028237,-344,775,-4868
8.029438,-279,811,-4708
8.030638,-81,887,-4515
8.031839,168,936,-4226
8.033039,588,1062,-4058
8.034240,756,1291,-3579
8.035440,1220,1468,-2832
8.036641,1580,1877,-1711
8.037841,1664,2354,-1009
8.039041,1704,2887,627
8.040242,1608,3221,2497
8.041442,1500,3782,4541
8.042643,1303,4338,5467
8.043843,1237,4627,7123
8.067485,1452,5209,8362
8.068686,1676,5790,8895
8.069886,2190,6301,9800
8.071087,2674,6474,10634
8.072287,2772,6838,11150
8.073488,2723,7209,12161
8.074688,2587,7466,12924
8.075889,2470,7982,13153
8.077089,2448,8594,12830
8.078290,2384,8764,11328
8.079490,1971,8737,9179
8.080691,1121,8551,8252
8.081891,928,8164,7030
8.083091,235,7988,6094
8.084292,-372,7656,5088
8.085492,-681,7383,4561
8.086693,-1283,7002,3524
8.087893,-1879,6976,2562
8.089094,-2164,6579,2030
8.090294,-2673,6108,842
8.117967,-3008,5853,-581
8.119168,-3240,5316,-2028
8.120368,-3363,4741,-2651
8.121569,-3549,4393,-4012
8.122769,-3667,3859,-5471
8.123970,-3681,3278,-6132
8.125170,-3629,2703,-7393
8.126371,-3542,2393,-8560
8.127571,-3447,1814,-9584
8.128772,-3360,1230,-10027
8.129972,-3208,967,-10976
8.131173,-3068,430,-11669
8.132373,-3015,-145,-11939
8.133574,-2913,-668,-12502
8.134774,-2806,-933,-13046
8.135975,-2744,-1482,-13500
8.137175,-2594,-2001,-13491
8.138376,-2429,-2239,-13660
8.139576,-2340,-2707,-13765
8.140777,-2302,-3155,-13752
8.143864,-2194,-3365,-13618
8.145064,-2030,-3746,-13376
8.146265,-1957,-4049,-13191
8.147465,-1780,-4341,-12655
8.148666,-1641,-4458,-11886
8.149866,-1465,-4614,-10978
8.151067,-1352,-4638,-10446
8.152267,-1081,-4387,-9353
8.153468,-854,-4543,-8339
8.154668,-757,-4325,-7865
8.155869,-551,-4020,-6993
8.157069,-356,-3852,-6339
8.158270,-270,-3462,-5611
8.159470,-291,-3032,-5164
8.160671,-358,-2533,-4452
8.161871,-340,-2251,-3929
8.163071,-332,-1726,-3672
8.164272,-279,-1269,-3335
8.165472,-203,-1105,-3353
8.166673,-187,-898,-3572
8.232001,-192,-809,-3699
8.233201,-175,-752,-3997
8.234402,-227,-639,-4289
8.235602,-260,-536,-4452
8.236803,-296,-388,-4803
8.238003,-365,-311,-5133
8.239204,-399,-181,-5569
8.240404,-413,-76,-5709
8.241605,-411,-35,-6128
8.242805,-432,18,-6520
8.244006,-436,59,-6723
8.245206,-465,23,-6978
8.246407,-504,-18,-7247
8.247607,-497,-48,-7648
8.248808,-500,-135,-7589
8.250008,-574,-158,-7734
8.251209,-626,-204,-7847
8.252409,-669,-223,-7835
8.253610,-741,-215,-7789
8.254810,-804,-217,-7718
8.232159,-821,-186,-7677
8.233360,-854,-112,-7526
8.234560,-781,-7,-7329
8.235760,-519,75,-7149
8.236961,-350,344,-6986
8.238161,66,537,-6390
8.239362,552,1005,-5419
8.240562,1039,1665,-4813
8.241763,1208,2489,-3321
8.242963,1473,2972,-1279
8.244164,1423,3974,1567
8.245364,1229,5167,3284
8.246565,916,6612,6828
8.247765,1010,7144,10112
8.248966,1100,8378,11514
8.250166,1141,9489,14061
8.251367,1184,9975,15962
8.252567,1413,10933,17199
8.253768,1609,11871,17576
8.254968,2097,12578,17958
8.232236,2484,13174,17628
8.233436,2639,13852,17095
8.234637,2597,13840,15298
8.235837,1916,13583,12974
8.237038,814,12904,11117
8.238238,183,11774,9923
8.239439,-1019,10677,9030
8.240639,-2145,9842,7197
8.241840,-2722,8550,6048
8.243040,-3778,6955,4160
8.244241,-4725,6177,2136
8.245441,-5399,4865,-46
8.246642,-5625,3693,-1382
8.247842,-5796,3112,-3551
8.249043,-5738,2039,-5586
8.250243,-5668,1101,-6665
8.251443,-5488,263,-8652
8.252644,-5202,-158,-10307
8.253844,-5041,-922,-11843
8.255045,-4758,-1631,-12530
8.288946,-4611,-1999,-13766
8.290147,-4439,-2594,-14850
8.291347,-4301,-3193,-15451
8.292548,-4093,-3697,-16533
8.293748,-3768,-3979,-17410
8.294949,-3347,-4421,-17950
8.296149,-3174,-4799,-18251
8.297350,-2771,-4956,-18584
8.298550,-2474,-5221,-18626
8.299750,-2344,-5467,-18524
8.300951,-2164,-5838,-18029
8.302151,-2111,-5766,-17060
8.303352,-2109,-5850,-16347
8.304552,-2002,-5783,-14599
8.305753,-1784,-5705,-12787
8.306953,-1440,-5425,-11232
8.308154,-1273,-5045,-10514
8.309354,-988,-4548,-9303
8.310555,-883,-4381,-8030
8.311755,-938,-3947,-7391
8.332737,-1033,-3320,-6128
8.333937,-1058,-2952,-4731
8.335138,-997,-2238,-3752
8.336338,-969,-1688,-3453
8.337539,-894,-1197,-3000
8.338739,-798,-1101,-2695
8.339940,-735,-772,-2563
8.341140,-685,-457,-2422
8.342341,-667,-295,-2285
8.343541,-665,14,-2258
8.344741,-640,334,-2267
8.345942,-649,754,-2411
8.347142,-632,756,-2703
8.348343,-581,959,-2929
8.349543,-515,1116,-3553
8.350744,-456,1161,-4127
8.351944,-425,1194,-4700
8.353145,-400,1166,-5035
8.354345,-430,1134,-5539
8.355546,-428,1055,-5995
8.414640,-446,950,-6207
8.415841,-445,888,-6502
8.417041,-493,855,-6775
8.418242,-540,772,-7146
8.419442,-627,717,-7099
8.420643,-704,686,-7171
8.421843,-728,619,-7155
8.423044,-759,592,-7140
8.424244,-808,559,-7068
8.425445,-852,530,-7007
8.426645,-894,531,-6894
8.427846,-956,536,-6688
8.429046,-999,572,-6478
8.430247,-996,640,-6206
8.431447,-971,767,-6059
8.432648,-858,811,-5764
8.433848,-557,952,-5561
8.435049,-78,1101,-5437
8.436249,246,1349,-5141
8.437450,973,1530,-4384
8.414768,1545,1999,-2996
8.415968,1689,2581,-2098
8.417168,1765,3151,-81
8.418369,1418,3613,2377
8.419569,871,4385,3768
8.420770,595,5187,6450
8.421970,353,5578,8902
8.423171,450,6383,10606
8.424371,611,7136,11252
8.425572,1045,7779,12224
8.426772,1592,8193,12908
8.427973,1880,8779,13058
8.429173,2394,9253,13177
8.430374,2682,9416,13140
8.431574,2766,9700,12747
8.432775,2753,9948,12048
8.433975,2664,9962,10487
8.435176,2250,9850,9023
8.436376,1930,9550,8443
8.437577,1185,9060,7462
8.414850,376,8754,6429
8.416051,-374,8153,5347
8.417251,-712,7513,4644
8.418452,-1253,7210,3420
8.419652,-1699,6570,2122
8.420853,-1875,5942,1536
8.422053,-2146,5352,435
8.423254,-2361,5062,-608
8.424454,-2713,4467,-1628
8.425655,-2688,3867,-2048
8.426855,-2930,3546,-2995
8.428056,-3140,2911,-3977
8.429256,-3255,2248,-4520
8.430456,-3512,1638,-5567
8.431657,-3749,1176,-6599
8.432857,-3880,468,-7630
8.434058,-4018,-201,-8232
8.435258,-4003,-484,-9264
8.436459,-3850,-1025,-10277
8.437659,-3704,-1496,-10772
8.467316,-3379,-1989,-11685
8.468516,-3059,-2185,-12545
8.469717,-2661,-2572,-12934
8.470917,-2627,-2983,-13530
8.472117,-2464,-3191,-13967
8.473318,-2297,-3507,-14259
8.474518,-2200,-3760,-14349
8.475719,-2076,-3893,-14395
8.476919,-2019,-4092,-14254
8.478120,-1980,-4274,-14120
8.479320,-1882,-4393,-13754
8.480521,-1794,-4435,-13111
8.481721,-1687,-4424,-12172
8.482922,-1629,-4306,-11592
8.484122,-1478,-3946,-10446
8.485323,-1302,-3942,-9259
8.486523,-1170,-3569,-8730
8.487724,-941,-3149,-7726
8.488924,-724,-2931,-6785
8.490125,-560,-2469,-6143
8.511614,-510,-2030,-5681
8.512814,-570,-1798,-4992
8.514015,-653,-1225,-4283
8.515215,-649,-584,-3933
8.516415,-616,46,-3364
8.517616,-537,309,-3168
8.518816,-470,663,-3170
8.520017,-443,878,-3310
8.521217,-372,961,-3483
8.522418,-340,1077,-3695
8.523618,-353,1146,-3813
8.524819,-412,1187,-4019
8.526019,-458,1192,-4263
8.527220,-513,1232,-4730
8.528420,-548,1250,-4865
8.529621,-600,1233,-5259
8.530821,-581,1212,-5753
8.532022,-581,1089,-5983
8.533222,-587,1015,-6449
8.534423,-576,847,-6846
8.555291,-588,659,-7013
8.556491,-579,438,-7227
8.557692,-569,338,-7404
8.558892,-585,125,-7558
8.560093,-571,-89,-7595
8.561293,-548,-140,-7611
8.562494,-479,-265,-7520
8.563694,-433,-393,-7470
8.564895,-325,-500,-7334
8.566095,-260,-516,-7178
8.567296,-64,-548,-6927
8.568496,83,-539,-6764
8.569697,394,-494,-6240
8.570897,695,-327,-5437
8.572098,763,-44,-4844
8.573298,789,401,-3527
8.574499,675,631,-2098
8.575699,665,1095,-808
8.576900,710,1608,-210
8.578100,974,1891,1062
8.602791,1285,2610,2748
8.603992,1400,3567,3801
8.605192,1614,4823,6165
8.606393,1966,5451,8620
8.607593,2155,6660,10843
8.608794,2119,7785,11941
8.609994,2000,8256,13691
8.611195,1896,9168,14923
8.612395,1900,10182,15296
8.613596,1960,11138,15431
8.614796,1944,11530,14191
8.615997,1923,11829,11796
8.617197,1557,11631,10465
8.618398,890,11418,8490
8.619598,178,10836,7413
8.620799,-191,10228,6896
8.621999,-1003,9479,5491
8.623200,-1919,9036,3891
8.624400,-2923,8048,2073
8.625601,-3290,6924,1464
8.655577,-4024,6348,-353
8.656778,-4505,5166,-2247
8.657978,-4668,4004,-3147
8.659179,-4862,2958,-4909
8.660379,-4843,2494,-6650
8.661580,-4800,1566,-7529
8.662780,-4573,712,-9229
8.663981,-4216,270,-10675
8.665181,-3945,-560,-12002
8.666382,-3823,-1421,-12619
8.667582,-3662,-2264,-13693
8.668783,-3479,-2481,-14559
8.669983,-3116,-3141,-14891
8.671184,-3160,-3744,-15470
8.672384,-2953,-4041,-15868
8.673585,-2742,-4555,-16083
8.674785,-2654,-5046,-16098
8.675986,-2464,-5503,-15978
8.677186,-2302,-5620,-15604
8.678387,-2219,-5931,-15272
8.683244,-2095,-6085,-14373
8.684444,-2007,-6124,-13049
8.685645,-1898,-6078,-11767
8.686845,-1798,-5884,-10795
8.688045,-1615,-5736,-9496
8.689246,-1389,-5367,-8421
8.690446,-1272,-4959,-8010
8.691647,-1112,-4508,-7245
8.692847,-1123,-4234,-6267
8.694048,-1069,-3472,-5208
8.695248,-1018,-2616,-4693
8.696449,-991,-2257,-3933
8.697649,-1003,-1651,-3538
8.698850,-1001,-1148,-3408
8.700050,-947,-711,-3192
8.701251,-911,-491,-3062
8.702451,-877,-71,-3040
8.703652,-834,349,-2997
8.704852,-787,570,-3008
8.706053,-745,995,-3062
8.726249,-735,1405,-3120
8.727449,-725,1592,-3395
8.728650,-708,1849,-3762
8.729850,-695,2019,-4255
8.731051,-683,2087,-4508
8.732251,-682,2080,-5003
8.733452,-688,2029,-5493
8.734652,-711,1917,-5727
8.735853,-736,1868,-6136
8.737053,-762,1783,-6478
8.738254,-785,1677,-6647
8.739454,-778,1571,-6902
8.740654,-810,1526,-7052
8.741855,-817,1442,-7165
8.743055,-814,1352,-7224
8.744256,-801,1031,-7277
8.745456,-789,1173,-7337
8.746657,-777,1042,-7309
8.747857,-773,935,-7245
8.749058,-781,873,-7111
8.726414,-824,777,-6922
8.727615,-868,676,-6804
8.728815,-946,623,-6575
8.730016,-1011,550,-6330
8.731216,-1027,498,-6212
8.732417,-1036,455,-5964
8.733617,-1037,442,-5700
8.734818,-999,426,-5259
8.736018,-972,434,-5170
8.737219,-936,447,-4812
8.738419,-856,467,-4422
8.739620,-771,525,-4228
8.740820,-644,542,-3887
8.742021,-530,566,-3482
8.743221,-487,636,-3018
8.744422,-408,709,-2855
8.745622,-276,753,-2434
8.746823,-101,853,-2150
8.748023,42,963,-2050
8.749224,341,1029,-1797
8.771411,856,1208,-1553
8.772612,1403,1468,-1145
8.773812,1804,1806,-796
8.775013,2378,2010,266
8.776213,2628,2499,1766
8.777414,2653,3081,2619
8.778614,2394,3648,4627
8.779815,2053,3934,6911
8.781015,1990,4551,7895
8.782216,2021,5253,9619
8.783416,2294,5535,10822
8.784617,2595,6152,11933
8.785817,2772,6768,12386
8.787018,3016,7273,13390
8.788218,3047,7722,14342
8.789419,2995,8369,14712
8.790619,2720,9117,15036
8.791820,2472,9458,14390
8.793020,2300,9904,12690
8.794221,2128,9887,11668
8.836962,1645,9531,9841
8.838163,1032,9519,9127
8.839363,717,9233,8986
8.840564,-116,9115,8788
8.841764,-1204,9036,8622
8.842965,-2442,8851,8226
8.844165,-3010,8583,7917
8.845366,-4033,8411,7006
8.846566,-4959,7948,5956
8.847767,-5507,7157,5181
8.848967,-6673,6338,3267
8.850168,-7647,5876,1197
8.851368,-8397,5070,-846
8.852569,-8667,4213,-1891
8.853769,-9063,3893,-3988
8.854970,-9126,3213,-6073
8.856170,-9071,2439,-7075
8.857371,-8722,1787,-9426
8.858571,-8467,1517,-11246
8.859772,-8330,676,-12586
8.865215,-8037,-265,-13595
8.866416,-7805,-725,-15137
8.867616,-7615,-1643,-16506
8.868817,-7385,-2573,-17051
8.870017,-6910,-3528,-18170
8.871218,-6361,-3921,-19282
8.872418,-5753,-4667,-20193
8.873619,-5339,-5467,-20299
8.874819,-4638,-5766,-20794
