# t,ax,ay,az (t in seconds since start)
0.000000,2761,3074,488
0.001200,2764,3079,470
0.002401,2754,3085,480
0.003601,2739,3097,489
0.004802,2753,3088,484
0.006002,2758,3091,491
0.007203,2769,3118,474
0.008403,2750,3106,488
0.009604,2748,3114,490
0.010804,2747,3107,490
0.012005,2754,3093,502
0.013205,2752,3104,489
0.014406,2758,3088,480
0.015606,2758,3075,462
0.016807,2738,3077,459
0.018007,2753,3068,483
0.019208,2748,3064,469
0.020408,2758,3075,472
0.021609,2749,3071,464
0.022809,2754,3077,475
0.068666,2746,3051,496
0.069867,2748,3047,488
0.071067,2747,3048,501
0.072268,2748,3047,494
0.073468,2760,3027,500
0.074669,2759,3040,504
0.075869,2767,3021,520
0.077070,2755,3037,504
0.078270,2760,3023,525
0.079471,2762,3034,522
0.080671,2769,3059,530
0.081872,2773,3084,513
0.083072,2764,3068,527
0.084273,2767,3093,520
0.085473,2767,3098,513
0.086674,2767,3097,525
0.087874,2766,3094,511
0.089075,2766,3082,524
0.090275,2759,3072,518
0.091476,2756,3052,518
0.068814,2768,3053,499
0.070015,2779,3058,505
0.071215,2775,3050,502
0.072416,2775,3050,476
0.073616,2774,3047,478
0.074817,2753,3044,473
0.076017,2757,3024,492
0.077218,2780,3051,490
0.078418,2771,3070,477
0.079619,2780,3091,521
0.080819,2761,3089,537
0.082020,2767,3096,532
0.083220,2769,3078,544
0.084421,2763,3102,534
0.085621,2778,3082,538
0.086822,2775,3067,527
0.088022,2782,2821,527
0.089223,2781,3042,522
0.090423,2761,3050,510
0.091624,2763,3056,519
0.114499,2761,3065,519
0.115699,2756,3047,521
0.116900,2759,3064,524
0.118100,2760,3061,512
0.119300,2780,3064,501
0.120501,2751,3067,494
0.121701,2751,3087,509
0.122902,2768,3088,487
0.124102,2754,3088,494
0.125303,2762,3106,489
0.126503,2757,3089,468
0.127704,2752,3091,463
0.128904,2746,3080,460
0.130105,2770,3084,456
0.131305,2752,3070,459
0.132506,2744,3069,445
0.133706,2767,3075,441
0.134907,2748,3064,453
0.136107,2753,3055,454
0.137308,2765,3054,443
0.159503,2767,3052,434
0.160704,2762,3052,448
0.161904,2772,3050,451
0.163105,2756,3065,446
0.164305,2754,3071,461
0.165506,2766,3063,462
0.166706,2773,3096,471
0.167907,2771,3103,471
0.169107,2766,3109,474
0.170308,2769,3126,465
0.171508,2756,3126,492
0.172708,2745,3129,479
0.173909,2755,3126,466
0.175109,2750,3139,460
0.176310,2756,3134,463
0.177510,2745,3139,451
0.178711,2747,3113,443
0.179911,2754,3096,412
0.181112,2750,3096,419
0.182312,2753,3080,434
0.200715,2760,3068,436
0.201916,2753,3052,432
0.203116,2740,3052,431
0.204317,2756,3034,451
0.205517,2758,3035,469
0.206718,2755,3046,467
0.207918,2750,3040,474
0.209119,2772,3043,475
0.210319,2759,3053,473
0.211520,2767,3067,485
0.212720,2754,3065,485
0.213921,2758,3085,494
0.215121,2759,3075,483
0.216321,2751,3102,487
0.217522,2750,3118,499
0.218722,2742,3127,485
0.219923,2758,3138,490
0.221123,2747,3141,497
0.222324,2759,3143,473
0.223524,2767,3133,488
0.200867,2759,3119,486
0.202067,2764,3115,481
0.203267,2761,3107,460
0.204468,2768,3080,464
0.205668,2749,3083,483
0.206869,2744,3079,480
0.208069,2755,3063,483
0.209270,2772,3056,495
0.210470,2764,3037,500
0.211671,2761,3044,487
0.212871,2766,3038,512
0.214072,2761,3044,501
0.215272,2757,3042,492
0.216473,2760,3050,520
0.217673,2778,3042,506
0.218874,2773,3058,524
0.220074,2768,3067,508
0.221275,2758,3084,515
0.222475,2771,3090,500
0.223676,2770,3100,504
0.242460,2773,3103,485
0.243660,2757,3097,488
0.244861,2762,3106,486
0.246061,2759,3108,468
0.247262,2751,3099,481
0.248462,2763,3102,470
0.249663,2757,3094,438
0.250863,2762,3086,464
0.252064,2756,3070,461
0.253264,2760,3068,468
0.254465,2762,3068,462
0.255665,2758,3070,445
0.256866,2756,3059,460
0.258066,2768,3063,457
0.259267,2765,3054,445
0.260467,2761,3056,463
0.261668,2770,3056,441
0.262868,2760,3069,443
0.264069,2753,3087,465
0.265269,2769,3102,451
0.286026,2748,3119,435
0.287227,2751,3142,434
0.288427,2768,3172,441
0.289628,2748,3173,431
0.290828,2758,3201,437
0.292028,2770,3209,445
0.293229,2779,3172,436
0.294429,2774,3156,455
0.295630,2816,3115,497
0.296830,2831,3155,487
0.298031,2802,3184,433
0.299231,2690,3200,331
0.300432,2657,3167,300
0.301632,2682,3102,324
0.302833,2713,3072,377
0.304033,2765,3036,429
0.305234,2755,3044,449
0.306434,2774,3037,489
0.307635,2768,3038,503
0.308835,2766,3037,488
0.343121,2773,3055,505
0.344322,2752,3053,499
0.345522,2753,3070,259
0.346722,2754,3067,470
0.347923,2758,3076,449
0.349123,2742,3083,447
0.350324,2755,3088,430
0.351524,2739,3115,442
0.352725,2758,3130,448
0.353925,2757,3146,440
0.355126,2752,3142,444
0.356326,2770,3157,449
0.357527,2770,3156,456
0.358727,2767,3156,462
0.359928,2767,3175,461
0.361128,2751,3182,453
0.362329,2759,3201,457
0.363529,2759,3186,467
0.364730,2767,3185,461
0.365930,2757,3188,480
0.379451,2755,3184,475
0.380652,2774,3175,474
0.381852,2759,3151,488
0.383053,2768,3142,493
0.384253,2763,3126,484
0.385454,2772,3108,478
0.386654,2777,3079,487
0.387855,2769,3058,463
0.389055,2777,3069,488
0.390256,2759,3044,472
0.391456,2763,3043,470
0.392657,2755,3029,483
0.393857,2757,3037,468
0.395058,2765,3028,479
0.396258,2772,3040,481
0.397459,2761,3037,474
0.398659,2754,3019,477
0.399860,2747,3037,465
0.401060,2768,3052,466
0.402261,2768,3050,466
0.432093,2760,3042,465
0.433294,2761,3032,450
0.434494,2755,3043,449
0.435695,2758,3054,435
0.436895,2755,3063,441
0.438096,2749,3065,458
0.439296,2766,3073,441
0.440497,2746,3061,441
0.441697,2761,3082,458
0.442898,2757,3067,444
0.444098,2749,3084,449
0.445299,2757,3085,437
0.446499,2752,3093,457
0.447700,2764,3092,459
0.448900,2755,3103,459
0.450101,2764,3111,476
0.451301,2773,3117,477
0.452502,2763,3124,469
0.453702,2769,3132,473
0.454903,2773,3111,487
0.471367,2768,3112,493
0.472568,2771,3112,494
0.473768,2786,3104,492
0.474969,2792,3093,499
0.476169,2777,3108,471
0.477370,2774,3110,476
0.478570,2773,3098,446
0.479771,2791,3123,428
0.480971,2791,3130,421
0.482172,2785,3160,390
0.483372,2779,3162,370
0.484573,2791,3207,392
0.485773,2788,3228,367
0.486974,2778,3232,371
0.488174,2761,3255,358
0.489375,2773,3278,368
0.490575,2763,3295,372
0.491776,2765,3286,362
0.492976,2761,3265,357
0.494177,2747,3249,315
0.530662,2749,3237,292
0.531862,2746,3199,302
0.533063,2753,3205,357
0.534263,2756,3213,389
0.535464,2759,3193,400
0.536664,2767,3164,394
0.537865,2760,3180,420
0.539065,2782,3177,431
0.540266,2762,3174,404
0.541466,2774,3192,418
0.542667,2772,3189,422
0.543867,2760,3180,406
0.545068,2765,3186,400
0.546268,2781,3162,384
0.547469,2753,3173,341
0.548669,2772,3171,349
0.549870,2775,3198,337
0.551070,2768,3184,351
0.552270,2769,3192,347
0.553471,2764,3212,367
0.530785,2766,3206,358
0.531985,2760,3209,392
0.533186,2756,3182,364
0.534386,2764,3166,386
0.535587,2763,3167,370
0.536787,2769,3156,376
0.537987,2762,3148,376
0.539188,2766,3134,380
0.540388,2782,3137,392
0.541589,2767,3123,395
0.542789,2772,3107,421
0.543990,2764,3108,431
0.545190,2775,3097,445
0.546391,2783,3075,459
0.547591,2765,3069,475
0.548792,2771,3058,487
0.549992,2774,3046,498
0.551193,2789,3030,510
0.552393,2786,3021,503
0.553594,2780,3028,500
0.565445,2768,3015,510
0.566646,2772,3014,490
0.567846,2799,3014,486
0.569047,2768,3011,468
0.570247,2776,3009,473
0.571448,2793,3013,456
0.572648,2789,3031,467
0.573849,2785,3031,448
0.575049,2776,3048,467
0.576250,2788,3029,470
0.577450,2781,3030,468
0.578651,2772,3028,471
0.579851,2775,3037,491
0.581051,2750,2990,485
0.582252,2766,2991,484
0.583452,2771,2994,493
0.584653,2763,2995,498
0.585853,2785,2993,496
0.587054,2777,2993,490
0.588254,2772,2994,496
0.605825,2782,2987,500
0.607025,2793,2983,502
0.608226,2789,2971,516
0.609426,2781,2986,498
0.610627,2779,2957,505
0.611827,2799,2977,503
0.613028,2796,2979,501
0.614228,2800,2970,514
0.615429,2808,2988,520
0.616629,2810,2970,544
0.617830,2813,2959,542
0.619030,2821,2944,561
0.620231,2815,2935,570
0.621431,2821,2929,572
0.622632,2812,2899,570
0.623832,2809,2897,592
0.625032,2787,2878,600
0.626233,2811,2859,629
0.627433,2811,2831,609
0.628634,2822,2842,664
0.659484,2816,2842,668
0.660684,2821,2852,682
0.661885,2821,2836,670
0.663085,2816,2852,683
0.664286,2828,2815,572
0.665486,2836,2864,627
0.666686,2811,2856,662
0.667887,2833,2865,627
0.669087,2816,2864,597
0.670288,2821,2872,609
0.671488,2815,2870,612
0.672689,2812,2845,607
0.673889,2806,2853,622
0.675090,2828,2929,579
0.676290,2835,3051,447
0.677491,2633,3408,672
0.678691,2720,3426,459
0.679892,2639,3061,600
0.681092,2836,2962,613
0.682293,2856,2801,689
0.718959,2827,2729,794
0.720160,2814,2631,613
0.721360,2879,2944,630
0.722561,2819,2848,730
0.723761,2822,2921,704
0.724961,2828,2914,710
0.726162,2808,2861,724
0.727362,2809,2729,757
0.728563,2876,2736,774
0.729763,2847,2697,779
0.730964,2865,2686,744
0.732164,2837,2703,741
0.733365,2842,2766,729
0.734565,2839,2845,732
0.735766,2832,2888,721
0.736966,2825,2944,726
0.738167,2834,3023,720
0.739367,2828,3041,690
0.740568,2831,3041,632
0.741768,2821,3026,609
0.755532,2831,3019,598
0.756733,2812,2992,551
0.757933,2824,2982,546
0.759134,2816,2940,534
0.760334,2803,2942,518
0.761535,2811,2941,516
0.762735,2807,2923,517
0.763936,2809,2917,531
0.765136,2806,2922,533
0.766337,2806,2924,533
0.767537,2810,2944,545
0.768738,2796,2950,549
0.769938,2790,2946,530
0.771138,2798,2950,552
0.772339,2786,2952,538
0.773539,2803,2959,545
0.774740,2784,2948,564
0.775940,2782,2930,542
0.777141,2784,2920,539
0.778341,2787,2923,549
0.792510,2788,2922,544
0.793711,2794,2922,527
0.794911,2793,2918,549
0.796112,2785,2928,555
0.797312,2795,2929,542
0.798513,2780,2938,566
0.799713,2802,2938,569
0.800914,2787,2963,566
0.802114,2793,2961,584
0.803315,2800,2951,588
0.804515,2795,2958,587
0.805716,2802,2954,591
0.806916,2800,2964,599
0.808117,2818,2969,603
0.809317,2810,2966,611
0.810518,2808,2959,625
0.811718,2810,2952,651
0.812919,2807,2936,652
0.814119,2799,2913,638
0.815320,2814,2911,642
0.792675,2795,2886,638
0.793876,2805,2877,642
0.795076,2808,2881,643
0.796277,2792,2887,646
0.797477,2801,2914,650
0.798678,2813,2929,662
0.799878,2808,2949,673
0.801079,2805,2981,647
0.802279,2802,2997,654
0.803479,2794,3016,639
0.804680,2798,3035,610
0.805880,2814,3034,608
0.807081,2828,3045,597
0.808281,2801,3045,578
0.809482,2801,3020,555
0.810682,2798,2994,553
0.811883,2800,2971,556
0.813083,2802,2923,572
0.814284,2810,2889,611
0.815484,2825,2845,620
0.882907,2843,2819,663
0.884107,2826,2755,712
0.885308,2827,2750,745
0.886508,2926,2750,783
0.887709,2885,2606,862
0.888909,2860,2498,831
0.890110,2845,2469,805
0.891310,2853,2465,800
0.892511,2847,2509,805
0.893711,2849,2542,826
0.894912,2872,2567,952
0.896112,2890,2552,1070
0.897313,2895,2516,1136
0.898513,2921,2466,1241
0.899713,2929,2472,1352
0.900914,2923,2451,1434
0.902114,2922,2468,1493
0.903315,2924,2470,1570
0.904515,2902,2457,1589
0.905716,2905,2426,1592
0.883031,2871,2426,1617
0.884231,2873,2399,1583
0.885432,2828,2359,1645
0.886632,2782,2358,1693
0.887833,2716,2369,1770
0.889033,2760,2469,1642
0.890234,2774,2495,1578
0.891434,2745,2435,1618
0.892635,2693,2444,1702
0.893835,2703,2470,1710
0.895036,2661,2515,1693
0.896236,2640,2536,1731
0.897437,2627,2631,1726
0.898637,2601,2729,1697
0.899837,2575,3042,1633
0.901038,2571,2939,1525
0.902238,2561,3039,1470
0.903439,2583,3175,1406
0.904639,2554,3236,1321
0.905840,2568,3338,1148
0.927393,2564,3404,1057
0.928593,2552,3461,947
0.929794,2531,3492,823
0.930994,2507,3507,770
0.932195,2506,3496,583
0.933395,2464,3501,497
0.934596,2447,3446,296
0.935796,2438,3387,258
0.936997,2454,3321,190
0.938197,2455,3304,158
0.939398,2467,3349,126
0.940598,2467,3349,116
0.941799,2409,3361,161
0.942999,2394,3411,159
0.944200,2389,3422,123
0.945400,2369,3422,56
0.946601,2371,3398,-27
0.947801,2353,3389,-47
0.949002,2348,3363,-107
0.950202,2347,3329,-147
0.964324,2335,3271,-170
0.965525,2324,3215,-207
0.966725,2292,3184,-286
0.967926,2287,3168,-360
0.969126,2283,3133,-359
0.970327,2276,3183,-381
0.971527,2282,3191,-383
0.972728,2284,3214,-386
0.973928,2289,3261,-372
0.975129,2295,3272,-424
0.976329,2271,3332,-381
0.977530,2266,3412,-447
0.978730,2242,3453,-480
0.979931,2252,3475,-437
0.981131,2234,3572,-579
0.982331,2198,3559,-523
0.983532,2119,3622,-654
0.984732,2155,3661,-585
0.985933,2181,3745,-693
0.987133,2241,3746,-772
1.020303,2214,3732,-794
1.021504,2156,3623,-660
1.022704,2149,3740,-796
1.023905,2159,3723,-819
1.025105,2094,3740,-736
1.026306,2046,3777,-811
1.027506,2049,3782,-783
1.028707,2129,3854,-901
1.029907,2125,3853,-904
1.031108,2111,3825,-866
1.032308,2054,3815,-916
1.033509,2069,3869,-1021
1.034709,2097,3917,-1022
1.035910,2039,3879,-1022
1.037110,2008,3890,-1121
1.038311,1986,3902,-1129
1.039511,1957,3936,-1197
1.040712,2003,3967,-1331
1.041912,1953,3970,-1354
1.043113,1929,3967,-1382
1.056104,1880,3964,-1417
1.057304,1878,4013,-1520
1.058505,1889,4059,-1561
1.059705,1865,4059,-1608
1.060906,1849,4062,-1685
1.062106,1856,4092,-1728
1.063307,1867,4121,-1769
1.064507,1862,4112,-1836
1.065708,1862,4131,-1882
1.066908,1848,4179,-1909
1.068109,1873,4177,-1916
1.069309,1860,4191,-1964
1.070510,1859,4235,-1955
1.071710,1868,4284,-1954
1.072911,1896,4303,-1957
1.074111,1889,4333,-1939
1.075312,1883,4355,-1910
1.076512,1879,4365,-1927
1.077713,1835,4378,-1906
1.078913,1830,4373,-1872
1.112447,1825,4403,-1908
1.113648,1808,4409,-1907
1.114848,1780,4382,-1897
1.116049,1778,4387,-1981
1.117249,1795,4368,-1976
1.118449,1772,4378,-2081
1.119650,1751,4317,-2050
1.120850,1750,4330,-2070
1.122051,1791,4347,-2057
1.123251,1794,4364,-2083
1.124452,1776,4333,-2050
1.125652,1772,4353,-2074
1.126853,1771,4358,-2078
1.128053,1764,4380,-2061
1.129254,1785,4359,-2074
1.130454,1784,4370,-2046
1.131655,1776,4364,-2025
1.132855,1788,4347,-1982
1.134056,1782,4343,-1914
1.135256,1794,4312,-1865
1.112583,1780,4277,-1822
1.113783,1844,4251,-1743
1.114984,1831,4237,-1764
1.116184,1821,4220,-1736
1.117385,1825,4219,-1672
1.118585,1815,4199,-1624
1.119786,1821,4193,-1596
1.120986,1816,4183,-1559
1.122187,1832,4177,-1507
1.123387,1829,4189,-1464
1.124588,1834,4154,-1435
1.125788,1836,4129,-1308
1.126989,1859,4134,-1225
1.128189,1864,4135,-1163
1.129390,1869,4135,-1128
1.130590,1857,4127,-1034
1.131791,1845,4115,-928
1.132991,1856,4082,-903
1.134192,1861,4042,-788
1.135392,1819,4009,-676
1.148514,1754,3913,-594
1.149714,1738,3807,-544
1.150915,1717,3776,-497
1.152115,1724,3706,-446
1.153316,1750,3632,-426
1.154516,1795,3627,-452
1.155717,1778,3599,-484
1.156917,1756,3557,-461
1.158118,1759,3525,-457
1.159318,1802,3551,-458
1.160519,1887,3568,-459
1.161719,1916,3588,-422
1.162919,1930,3562,-366
1.164120,1944,3588,-362
1.165320,1920,3531,-54
1.166521,1947,3559,-196
1.167721,2026,3526,-153
1.168922,2048,3541,-137
1.170122,2053,3496,-120
1.171323,2034,3421,-150
1.198016,1975,3401,-216
1.199216,1916,3342,-192
1.200416,1908,3274,-234
1.201617,1874,3279,-1520
1.202817,1795,2972,-1426
1.204018,1821,3027,-1220
1.205218,1845,2939,-993
1.206419,1785,2973,-672
1.207619,1842,3248,-413
1.208820,1970,3609,-156
1.210020,2112,3728,-18
1.211221,2017,3694,6
1.212421,2013,3293,-42
1.213622,1982,3085,36
1.214822,2224,3542,321
1.216023,2198,3573,472
1.217223,2164,3310,303
1.218424,2091,3156,189
1.219624,2233,3313,367
1.220825,2216,3307,384
1.236932,2137,3217,360
1.238133,2054,3049,37
1.239333,1991,3066,90
1.240534,1964,3328,311
1.241734,2066,3400,635
1.242935,2026,3373,664
1.244135,2021,3286,688
1.245336,1936,3184,828
1.246536,1866,3185,758
1.247737,1882,3000,786
1.248937,1907,2860,768
1.250138,1934,2792,771
1.251338,1920,2531,614
1.252539,1974,2509,877
1.253739,2043,2491,773
1.254940,2038,2519,723
1.256140,2048,2465,840
1.257341,2066,2340,802
1.258541,2068,2296,805
1.259741,2056,2382,890
1.290849,2070,2538,932
1.292050,2137,2625,937
1.293250,2073,2744,947
1.294451,2071,2786,981
1.295651,2031,2648,868
1.296852,2173,2591,988
1.298052,2222,2550,988
1.299253,2351,2804,1060
1.300453,2386,2892,1043
1.301654,2307,2989,1260
1.302854,2228,3109,1288
1.304055,2163,3092,1465
1.305255,2182,3127,1584
1.306456,2191,3216,2026
1.307656,2298,3032,1759
1.308857,2234,2941,1788
1.310057,2289,2808,2092
1.311258,2260,2778,2221
1.312458,2291,3081,2347
1.313659,2320,3092,2409
1.328905,2358,3211,2597
1.330106,2378,3317,2484
1.331306,2543,3488,2537
1.332506,2566,3530,2835
1.333707,2636,3615,2896
1.334907,2663,3213,2871
1.336108,2668,3217,3019
1.337308,2680,3211,2996
1.338509,2603,3046,3023
1.339709,2668,3133,3094
1.340910,2680,2878,3085
1.342110,2738,2747,3044
1.343311,2704,2606,3034
1.344511,2706,2551,3047
1.345712,2690,2474,3059
1.346912,2693,2448,3034
1.348113,2681,2409,3105
1.349313,2692,2437,2820
1.350514,2705,2307,2955
1.351714,2693,2313,2930
1.366482,2693,2322,2895
1.367683,2714,2356,2891
1.368883,2721,2307,2782
1.370084,2693,2337,2791
1.371284,2662,2471,2770
1.372485,2635,2429,2683
1.373685,2629,2445,2600
1.374886,2627,2454,2554
1.376086,2638,2536,2512
1.377287,2566,2543,2500
1.378487,2527,2601,2444
1.379688,2507,2583,2441
1.380888,2504,2550,2444
1.382089,2494,2609,2498
1.383289,2494,2632,2492
1.384490,2503,2640,2515
1.385690,2505,2646,2531
1.386891,2502,2628,2618
1.388091,2514,2585,2652
1.389292,2549,2605,2641
1.426324,2578,2594,2701
1.427525,2569,2682,2841
1.428725,2602,2879,2848
1.429925,2656,3260,2762
1.431126,2656,3245,2835
1.432326,2647,3475,2730
1.433527,2600,3355,2605
1.434727,2592,3271,2552
1.435928,2657,3080,2685
1.437128,2690,2941,2808
1.438329,2769,2877,3027
1.439529,2803,2783,3234
1.440730,2789,2697,3282
1.441930,2808,2596,3360
1.443131,2755,2544,3355
1.444331,2766,2457,3341
1.445532,2745,2386,3362
1.446732,2717,2339,3443
1.447933,2715,2275,3524
1.449133,2715,2194,3553
1.477190,2722,2144,3631
1.478391,2727,2124,3717
1.479591,2709,2094,3740
1.480791,2703,2094,3664
1.481992,2658,2097,3658
1.483192,2638,2139,3632
1.484393,2616,2197,3581
1.485593,2622,2270,3501
1.486794,2580,2279,3363
1.487994,2314,2307,3292
1.489195,2473,2348,3211
1.490395,2462,2381,3068
1.491596,2444,2496,2929
1.492796,2433,2570,2859
1.493997,2384,2629,2767
1.495197,2346,2699,2660
1.496398,2342,2807,2371
1.497598,2342,2901,2449
1.498799,2319,2937,2396
1.499999,2308,3000,2216
1.477329,2305,3063,2175
1.478530,2331,3074,2032
1.479730,2295,3076,1857
1.480931,2251,3063,1793
1.482131,2227,3040,1713
1.483332,2252,3068,1669
1.484532,2243,3090,1496
1.485733,2260,3081,1487
1.486933,2251,3060,1483
1.488134,2203,3037,1592
1.489334,2178,2930,1538
1.490535,2114,2898,1527
1.491735,2147,2923,1590
1.492936,2101,2919,1478
1.494136,2110,2876,1586
1.495336,2035,2766,1605
1.496537,2061,2743,1586
1.497737,2059,2747,1494
1.498938,2017,2677,1363
1.500138,2021,2713,1317
1.516212,2038,2765,1390
1.517412,2009,2801,1383
1.518613,2029,2714,1257
1.519813,1947,2785,1199
1.521014,1928,2691,1332
1.522214,1865,2677,1136
1.523415,1899,2707,1063
1.524615,1855,2692,999
1.525816,1803,2652,1015
1.527016,1850,2672,1009
1.528217,1855,2736,1019
1.529417,1804,2741,1035
1.530618,1781,2792,1048
1.531818,1811,2874,991
1.533019,1801,2943,1018
1.534219,1813,3010,868
1.535419,1807,3036,782
1.536620,1803,3083,679
1.537820,1778,3141,634
1.539021,1694,3145,554
1.551014,1672,3217,509
1.552214,1607,3291,422
1.553415,1577,3305,432
1.554615,1576,3376,390
1.555815,1583,3487,257
1.557016,1573,3547,193
1.558216,1575,3587,66
1.559417,1568,3683,-7
1.560617,1543,3759,23
1.561818,1499,3798,-64
1.563018,1473,3826,-137
1.564219,1504,3901,-264
1.565419,1509,3976,-382
1.566620,1478,3973,-494
1.567820,1434,3968,-580
1.569021,1440,3949,-667
1.570221,1410,3967,-826
1.571422,1376,3927,-952
1.572622,1393,3898,-992
1.573823,1350,3871,-1112
1.588581,1321,3849,-1278
1.589782,1337,3795,-1306
1.590982,1344,3806,-1314
1.592183,1293,3751,-1409
1.593383,1276,3734,-1456
1.594584,1211,3724,-1317
1.595784,1264,3722,-1521
1.596985,1153,3734,-1644
1.598185,1155,3704,-1664
1.599385,1172,3781,-1705
1.600586,1158,3736,-1786
1.601786,1170,3737,-1826
1.602987,1181,3758,-1840
1.604187,1205,3786,-1892
1.605388,1182,3821,-1833
1.606588,1139,3867,-1821
1.607789,1113,3921,-1816
1.608989,1141,3938,-1844
1.610190,1180,4006,-1786
1.611390,1142,4037,-1795
1.640292,1083,3974,-1780
1.641492,1162,3998,-1799
1.642693,1247,4109,-1744
1.643893,1244,4082,-1764
1.645094,1239,4072,-1815
1.646294,1268,4100,-1785
1.647495,1286,4161,-1768
1.648695,1274,4217,-1737
1.649896,1260,4236,-1801
1.651096,1254,4292,-1841
1.652297,1264,4339,-1863
1.653497,1266,4398,-1881
1.654698,1272,4470,-1941
1.655898,1288,4547,-1990
1.657099,1263,4616,-2013
1.658299,1247,4660,-2008
1.659500,1239,4751,-1991
1.660700,1222,4847,-1998
1.661901,1252,4880,-2014
1.663101,1255,4943,-2016
1.682868,1249,4995,-2032
1.684068,1240,5030,-1976
1.685269,1256,5056,-1955
1.686469,1240,5079,-1951
1.687670,1260,5073,-1895
1.688870,1269,5092,-1862
1.690071,1241,5071,-1844
1.691271,1247,5071,-1832
1.692472,1238,5027,-1833
1.693672,1229,4998,-1807
1.694873,1220,4946,-1839
1.696073,1221,4895,-1852
1.697274,1183,4879,-1902
1.698474,1158,4816,-1982
1.699675,1129,4754,-2027
1.700875,1070,4685,-2187
1.702076,959,4654,-2318
1.703276,607,4537,-2402
1.704477,699,4468,-2555
1.705677,627,4467,-2692
1.682990,576,4428,-2696
1.684190,632,4502,-2753
1.685391,668,4514,-2939
1.686591,678,4439,-2845
1.687792,701,4466,-2796
1.688992,808,4517,-2699
1.690193,917,4563,-2539
1.691393,953,4585,-2332
1.692594,964,4608,-2243
1.693794,940,4621,-1976
1.694995,1023,4697,-1803
1.696195,1022,4703,-1754
1.697396,1105,4734,-1536
1.698596,1150,4711,-1422
1.699796,1085,4652,-1183
1.700997,1124,4650,-1053
1.702197,1167,4662,-1136
1.703398,1118,4583,-938
1.704598,1101,4558,-912
1.705799,1001,4461,-856
1.726255,1026,4487,-831
1.727456,968,4433,-856
1.728656,1000,4425,-821
1.729857,1017,4414,-944
1.731057,923,4313,-920
1.732258,924,4280,-882
1.733458,951,4325,-906
1.734659,989,4307,-885
1.735859,973,4326,-882
1.737060,1002,4393,-761
1.738260,1000,4405,-765
1.739461,1094,4429,-590
1.740661,1140,4470,-552
1.741862,1100,4450,-470
1.743062,1160,4432,-392
1.744263,1150,4395,-323
1.745463,1167,4347,-219
1.746664,1145,4304,-114
1.747864,1223,4276,-75
1.749065,1206,4246,-158
1.774627,1223,4195,-68
1.775827,1143,4080,-136
1.777027,1089,4011,-73
1.778228,889,4207,-610
1.779428,822,4289,-731
1.780629,728,4336,-508
1.781829,723,4274,-520
1.783030,728,3945,-381
1.784230,835,3968,-243
1.785431,936,3791,-350
1.786631,948,3768,-193
1.787832,990,3703,12
1.789032,1123,3715,329
1.790233,1206,3777,338
1.791433,1226,3691,379
1.792634,1426,3675,316
1.793834,1489,3501,309
1.795035,1517,3492,480
1.796235,1446,3554,837
1.797436,1582,3761,1308
1.817750,1345,3877,1160
1.818950,1493,3737,713
1.820151,1436,3577,1783
1.821351,1296,3785,1701
1.822551,1357,3933,2015
1.823752,1396,3810,1487
1.824952,1467,3496,1445
1.826153,1517,3326,1506
1.827353,1455,3250,1660
1.828554,1490,3219,1198
1.829754,1631,2886,1564
1.830955,1419,3007,1560
1.832155,1530,2977,1359
1.833356,1466,2882,1973
1.834556,1205,3146,1980
1.835757,1172,3166,1739
1.836957,1181,2961,1501
1.838158,1250,2893,1524
1.839358,1283,2706,1245
1.840559,1315,2668,1142
1.866983,1334,2456,909
1.868184,1466,2331,592
1.869384,1376,2308,451
1.870585,1418,2329,936
1.871785,1471,2692,1379
1.872986,1738,2930,1915
1.874186,1957,2644,1827
1.875387,1950,2648,1932
1.876587,1910,2895,2165
1.877788,1930,2839,1752
1.878988,1853,2886,2014
1.880189,1822,3135,2153
1.881389,1682,2990,2094
1.882590,1689,3210,2412
1.883790,1743,3189,2232
1.884991,1704,3530,2682
1.886191,1738,3379,2621
1.887392,1675,3435,2842
1.888592,1683,3528,2911
1.889793,1763,3568,2834
1.912221,1791,3432,2853
1.913421,1848,3402,2795
1.914622,1851,3584,2849
1.915822,1771,3491,2978
1.917023,1803,3472,2893
1.918223,1843,3516,2983
1.919423,1808,3576,3043
1.920624,1788,3413,3017
1.921824,1786,3208,2945
1.923025,1840,2996,2723
1.924225,1862,2994,2648
1.925426,1751,2882,2704
1.926626,1795,2848,2785
1.927827,1844,2990,2808
1.929027,1913,3035,2877
1.930228,1932,3137,2903
1.931428,1913,3126,2925
1.932629,1963,3181,3065
1.933829,1965,3198,2907
1.935030,1965,3018,2915
1.955733,1925,3053,2999
1.956933,1895,2971,2989
1.958134,1882,2959,3057
1.959334,1876,2922,2901
1.960534,1921,2979,2888
1.961735,1885,2955,2796
1.962935,1854,2926,2687
1.964136,1725,2894,2646
1.965336,1676,2907,2468
1.966537,1658,2848,2505
1.967737,1746,2632,2359
1.968938,1665,2794,2476
1.970138,1744,2757,2457
1.971339,1802,2598,2224
1.972539,1886,2554,2260
1.973740,1912,2516,2503
1.974940,1911,2571,2466
1.976141,1951,2575,2571
1.977341,1983,2521,2764
1.978542,1941,2690,3002
1.994400,1982,2851,3137
1.995600,2030,2822,3254
1.996801,2055,2867,3216
1.998001,2061,2849,3372
1.999202,2131,2840,3439
2.000402,2169,2849,3399
2.001603,2149,2835,3491
2.002803,2104,2852,3538
2.004004,2135,2852,3409
2.005204,2138,2981,3076
2.006405,2094,3053,3324
2.007605,2042,3028,3283
2.008806,1976,2996,3329
2.010006,1976,3022,3340
2.011207,2003,3070,3235
2.012407,1996,3083,3099
2.013608,1957,3062,3054
2.014808,1941,3108,3017
2.016009,1952,3172,3010
2.017209,1956,3235,3121
1.994528,1963,3274,3177
1.995728,1936,3289,3345
1.996929,1926,3301,3498
1.998129,1959,3296,3563
1.999330,1980,3243,3643
2.000530,2012,3220,3699
2.001731,2006,3119,3731
2.002931,2006,3018,3743
2.004132,1995,2998,3798
2.005332,1994,2921,3837
2.006532,1980,2890,3883
2.007733,1988,2887,3956
2.008933,1957,2891,4036
2.010134,1930,2936,4142
2.011334,1911,2959,4124
2.012535,2065,3008,4007
2.013735,2179,3133,3813
2.014936,2171,3081,3851
2.016136,2167,3079,3941
2.017337,2098,3055,3924
2.053799,2090,3035,3945
2.054999,2063,3049,3885
2.056199,2020,3019,3778
2.057400,1918,2969,3695
2.058600,1955,2960,3637
2.059801,1838,2926,3428
2.061001,1811,2898,3325
2.062202,1808,2948,3285
2.063402,1778,2869,2974
2.064603,1806,2863,2905
2.065803,1757,2817,2798
2.067004,1713,2839,2892
2.068204,1691,2904,3010
2.069405,1678,2879,2792
2.070605,1679,2967,2775
2.071806,1669,2958,2712
2.073006,1555,2965,2779
2.074207,1487,3015,2916
2.075407,1418,3012,2915
2.076608,1308,3105,2925
2.090000,1272,3220,2844
2.091200,1209,3300,2791
2.092401,1211,3407,2635
2.093601,1195,3423,2548
2.094802,1107,3542,2545
2.096002,1082,3634,2622
2.097203,1021,3684,2604
2.098403,1020,3807,2454
2.099604,768,3860,2356
2.100804,1021,3872,2287
2.102005,1041,3866,2045
2.103205,1045,3923,1953
2.104406,1013,3827,1929
2.105606,1027,3887,1887
2.106807,977,3861,1825
2.108007,1007,3849,1774
2.109208,957,3831,1634
2.110408,956,3829,1522
2.111609,917,3784,1459
2.112809,864,3712,1219
2.144608,843,3677,1098
2.145809,762,3601,996
2.147009,734,3475,857
2.148210,699,3434,727
2.149410,630,3355,525
2.150611,565,3205,384
2.151811,573,3195,266
2.153012,544,3167,137
2.154212,525,3231,13
2.155413,510,3286,-83
2.156613,416,3344,-155
2.157814,370,3323,-323
2.159014,371,3435,-400
2.160215,401,3410,-551
2.161415,395,3532,-521
2.162616,387,3487,-611
2.163816,374,3535,-725
2.165016,382,3815,-871
2.166217,426,3664,-833
2.167417,436,3827,-846
2.180726,355,3947,-882
2.181927,378,3975,-1056
2.183127,341,4106,-1036
2.184328,386,4168,-1037
2.185528,399,4177,-1174
2.186728,487,4215,-1274
2.187929,475,4204,-1389
2.189129,405,4183,-1317
2.190330,403,4155,-1364
2.191530,426,4194,-1423
2.192731,410,4247,-1406
2.193931,437,4273,-1493
2.195132,423,4270,-1467
2.196332,409,4271,-1507
2.197533,380,4304,-1545
2.198733,357,4314,-1517
2.199934,372,4384,-1628
2.201134,363,4416,-1608
2.202335,421,4456,-1718
2.203535,440,4551,-1718
2.232991,375,4535,-1748
2.234192,251,4548,-1765
2.235392,234,4596,-1835
2.236593,258,4704,-1928
2.237793,245,4725,-1978
2.238994,291,4828,-2049
2.240194,298,4842,-2168
2.241395,268,4930,-2211
2.242595,245,4926,-2275
2.243796,262,5021,-2338
2.244996,237,5058,-2335
2.246196,249,5104,-2376
2.247397,314,5145,-2401
2.248597,341,5133,-2365
2.249798,327,5123,-2357
2.250998,382,5104,-2291
2.252199,425,5067,-2271
2.253399,421,5043,-2268
2.254600,466,5012,-2115
2.255800,475,5005,-2100
2.276513,516,4927,-2047
2.277713,503,4882,-1977
2.278914,482,4859,-1910
2.280114,423,4821,-1865
2.281315,366,4762,-1885
2.282515,371,4738,-1808
2.283716,378,4710,-1814
2.284916,345,4672,-1759
2.286117,350,4673,-1794
2.287317,321,4662,-1771
2.288518,308,4652,-1791
2.289718,6,4571,-1776
2.290918,245,4568,-1790
2.292119,182,4533,-1865
2.293319,193,4536,-1934
2.294520,167,4516,-1955
2.295720,265,4533,-2035
2.296921,518,4669,-2257
2.298121,563,4757,-2278
2.299322,513,4761,-2323
2.276657,460,4806,-2414
2.277858,458,4927,-2484
2.279058,425,4978,-2485
2.280259,346,4972,-2495
2.281459,238,4979,-2532
2.282660,173,4958,-2541
2.283860,28,4909,-2511
2.285061,-89,4928,-2380
2.286261,-85,4981,-2067
2.287461,-52,5074,-2293
2.288662,-70,5071,-2266
2.289862,-35,5025,-2132
2.291063,6,5005,-1980
2.292263,144,5090,-1883
2.293464,183,5072,-1695
2.294664,180,5047,-1342
2.295865,315,5138,-1452
2.297065,394,5141,-1235
2.298266,428,5139,-1067
2.299466,426,5179,-1033
2.314665,462,5156,-848
2.315865,520,5147,-790
2.317066,763,5128,-811
2.318266,553,5117,-622
2.319467,547,5105,-638
2.320667,582,5008,-537
2.321868,578,4946,-580
2.323068,490,4842,-539
2.324269,496,4784,-712
2.325469,455,4675,-747
2.326670,431,4580,-767
2.327870,451,4595,-896
2.329071,495,4576,-918
2.330271,480,4517,-952
2.331471,565,4352,-1007
2.332672,569,4606,-871
2.333872,557,4616,-766
2.335073,601,4673,-651
2.336273,609,4641,-652
2.337474,582,4549,-478
2.365067,601,4477,-401
2.366268,638,4489,-274
2.367468,657,4444,-282
2.368668,634,4321,-173
2.369869,622,4266,-139
2.371069,668,4224,-7
2.372270,653,4162,188
2.373470,702,4156,8
2.374671,639,4103,-61
2.375871,670,4025,-190
2.377072,658,3982,-351
2.378272,621,3962,-437
2.379473,578,3966,-530
2.380673,566,4004,-630
2.381874,539,4117,-617
2.383074,552,4117,-596
2.384275,561,4170,-648
2.385475,536,4107,-587
2.386676,645,4169,-419
2.387876,684,4151,-341
2.417601,705,4078,-252
2.418801,782,4007,-13
2.420001,817,3910,145
2.421202,855,3831,288
2.422402,863,3685,439
2.423603,858,3340,524
2.424803,923,3471,726
2.426004,920,3341,654
2.427204,941,3288,760
2.428405,913,3203,854
2.429605,968,3102,964
2.430806,1018,3019,1059
2.432006,1032,2969,1068
2.433207,965,2763,1167
2.434407,956,2606,1203
2.435608,917,2538,1298
2.436808,985,2464,1425
2.438009,1015,2419,1331
2.439209,1036,2282,1378
2.440410,980,2277,1404
2.453504,894,2172,-427
2.454705,727,3560,-2612
2.455905,408,3304,-2144
2.457106,533,2980,96
2.458306,941,2414,2098
2.459507,973,1938,2692
2.460707,1210,1758,2865
2.461908,1317,1756,2493
2.463108,1233,1970,1925
2.464309,1223,2187,1504
2.465509,1211,2338,1447
2.466710,1232,2427,1708
2.467910,1178,2380,1373
2.469111,1041,2287,1629
2.470311,1221,2548,1531
2.471512,1208,2592,1544
2.472712,1180,2553,1792
2.473913,1195,2541,1897
2.475113,1248,2802,2279
2.476313,1314,2970,2156
2.490034,1288,2976,2364
2.491234,1327,2974,2502
2.492435,1403,3316,2584
2.493635,1387,3578,2646
2.494836,1364,3358,2786
2.496036,1507,3516,2822
2.497237,1368,3676,2963
2.498437,1458,3748,3085
2.499638,1522,3879,3133
2.500838,1466,3852,3240
2.502039,1741,3511,3344
2.503239,1737,3526,3442
2.504440,1762,3508,3475
2.505640,1744,3463,3552
2.506841,1838,3490,3623
2.508041,1788,3471,3661
2.509242,1744,3454,3757
2.510442,1980,3330,3978
2.511643,1947,3431,3874
2.512843,1952,3643,3873
2.550195,2029,3594,4116
2.551396,2073,3596,4253
2.552596,1974,3497,4179
2.553797,2039,3529,4156
2.554997,1944,3381,4032
2.556198,2016,3531,3981
2.557398,2003,3582,4220
2.558599,2062,3499,3941
2.559799,2095,3498,3875
2.560999,2018,3382,3756
2.562200,2057,3343,3717
2.563400,1937,3281,3733
2.564601,2070,3376,3787
2.565801,2052,3308,3835
2.567002,2039,3382,3690
2.568202,1935,3095,3487
2.569403,2001,3272,3426
2.570603,1990,3243,3525
2.571804,1923,3057,3282
2.573004,1940,3005,3338
2.604297,1969,3130,3415
2.605498,1930,2983,3438
2.606698,1950,2884,3205
2.607899,1920,2735,2928
2.609099,1770,2606,3148
2.610299,1898,2617,3219
2.611500,1984,2863,3485
2.612700,1833,2583,3463
2.613901,1836,2529,3202
2.615101,1783,2430,3140
2.616302,1774,2358,3196
2.617502,1787,2404,3235
2.618703,1836,2364,3494
2.619903,1817,2422,3532
2.621104,1795,2411,3557
2.622304,1834,2384,3462
2.623505,1925,2449,3499
2.624705,1923,2469,3557
2.625906,1995,2459,3580
2.627106,2050,2449,3529
2.604488,2059,2458,3589
2.605688,2105,2650,3666
2.606889,2125,2722,3719
2.608089,2126,2701,3663
2.609290,2161,2667,3588
2.610490,2147,2681,3533
2.611691,2123,2644,3684
2.612891,2089,2590,3681
2.614092,2099,2535,3778
2.615292,2094,2495,3921
2.616493,2152,2468,4032
2.617693,2166,2510,4050
2.618894,2137,2501,4189
2.620094,2090,2511,4289
2.621294,1824,3564,5054
2.622495,2022,3852,4931
2.623695,1984,3593,4585
2.624896,1958,3002,4184
2.626096,1990,2603,3893
2.627297,2046,2501,3788
2.643712,2059,2558,3799
2.644912,2034,2515,3709
2.646113,1942,2558,3752
2.647313,1912,2811,3840
2.648514,1851,2592,3531
2.649714,1801,2489,3256
2.650915,1731,2443,3018
2.652115,1588,2490,2819
2.653316,1286,2465,2663
2.654516,1524,2441,2389
2.655717,1603,2549,2125
2.656917,1550,2617,2238
2.658118,1604,2750,2160
2.659318,1545,2990,2004
2.660519,1446,2910,2004
2.661719,1460,2894,2078
2.662920,1341,3183,2198
2.664120,1391,3238,2125
2.665320,1404,3258,2044
2.666521,1367,3268,1859
2.679419,1355,3563,2057
2.680620,1284,3266,2132
2.681820,1200,3320,2240
2.683021,1175,3250,2083
2.684221,1133,3276,2047
2.685422,968,3330,2241
2.686622,1002,3341,2112
2.687823,889,3323,1986
2.689023,940,3219,2017
2.690224,841,3194,1921
2.691424,855,3223,1968
2.692625,759,3201,1867
2.693825,770,3196,1587
2.695026,786,3213,1672
2.696226,706,3145,1506
2.697427,655,3218,1232
2.698627,698,3217,808
2.699828,719,3089,332
2.701028,727,3084,90
2.702229,700,3163,479
2.736160,701,3174,500
2.737360,703,3194,500
2.738561,688,3035,574
2.739761,679,2996,528
2.740962,644,3014,514
2.742162,570,3057,479
2.743363,566,3159,523
2.744563,499,3285,526
2.745764,461,3317,397
2.746964,444,3448,313
2.748165,398,3451,311
2.749365,376,3417,380
2.750566,395,3369,394
2.751766,410,3329,378
2.752967,459,3388,419
2.754167,537,3420,433
2.755367,624,3506,419
2.756568,626,3612,386
2.757768,642,3662,362
2.758969,594,3774,378
2.770935,596,3910,360
2.772135,541,4101,321
2.773336,608,4197,70
2.774536,579,4387,-38
2.775737,558,4531,-3
2.776937,481,4581,-67
2.778138,419,4760,-201
2.779338,375,4951,-263
2.780539,289,5102,-385
2.781739,170,5177,-500
2.782940,123,5345,-504
2.784140,177,5534,-487
2.785341,224,5575,-513
2.786541,292,5679,-667
2.787742,298,5729,-684
2.788942,302,5727,-831
2.790143,309,5720,-877
2.791343,319,5749,-882
2.792544,352,5745,-860
2.793744,348,5699,-811
2.850543,307,5622,-783
2.851743,277,5564,-776
2.852944,269,5533,-733
2.854144,283,5529,-785
2.855345,284,5459,-843
2.856545,272,5333,-923
2.857746,231,5286,-953
2.858946,208,5110,-1045
2.860147,237,4989,-1108
2.861347,229,4950,-1284
2.862547,252,4826,-1286
2.863748,263,4778,-1311
2.864948,285,4776,-1340
2.866149,291,4755,-1388
2.867349,223,4708,-1591
2.868550,150,4724,-1752
2.869750,148,4739,-1695
2.870951,228,4812,-1781
2.872151,220,4797,-1826
2.873352,212,4741,-1857
2.850770,200,4718,-1862
2.851971,145,4714,-1886
2.853171,109,4729,-1931
2.854372,27,4734,-1991
2.855572,-20,4796,-2127
2.856773,-34,4863,-2180
2.857973,-29,4946,-2226
2.859174,70,5022,-2302
2.860374,161,5167,-2355
2.861575,180,5229,-2410
2.862775,149,5226,-2388
2.863975,118,5272,-2306
2.865176,122,5272,-2273
2.866376,124,5277,-2168
2.867577,105,5267,-2057
2.868777,115,5262,-2009
2.869978,122,5224,-1888
2.871178,158,5164,-1762
2.872379,217,5109,-1590
2.873579,226,4996,-1535
2.868793,286,4977,-1450
2.869994,329,4927,-1381
2.871194,337,4838,-1101
2.872395,352,4783,-1214
2.873595,337,4769,-1229
2.874796,352,4734,-1235
2.875996,345,4723,-1260
2.877197,309,4674,-1266
2.878397,256,4634,-1367
2.879598,230,4621,-1356
2.880798,193,4581,-1439
2.881999,122,4555,-1479
2.883199,128,4569,-1614
2.884400,129,4577,-1619
2.885600,102,4554,-1612
2.886801,106,4536,-1626
2.888001,157,4642,-1722
2.889202,115,4606,-1721
2.890402,138,4614,-1683
2.891603,183,4652,-1691
2.906135,206,4641,-1528
2.907335,211,4647,-1507
2.908536,257,4706,-1408
2.909736,331,4675,-1337
2.910937,326,4612,-1267
2.912137,310,4594,-1050
2.913338,362,4578,-1013
2.914538,403,4493,-880
2.915739,446,4504,-730
2.916939,476,4498,-646
2.918140,475,4414,-651
2.919340,460,4423,-493
2.920541,426,4375,-466
2.921741,437,4357,-421
2.922942,458,4365,-381
2.924142,415,4363,-376
2.925343,403,4319,-374
2.926543,371,4264,-393
2.927743,384,4233,-484
2.928944,353,4184,-487
2.958645,369,4200,-462
2.959845,415,4242,-461
2.961046,383,4236,-456
2.962246,397,4253,-380
2.963447,439,5741,-4708
2.964647,-63,5862,-7999
2.965848,16,4280,-3580
2.967048,595,3939,-631
2.968249,865,4363,2400
2.969449,890,4230,1405
2.970650,720,3986,302
2.971850,661,4106,251
2.973051,500,4170,553
2.974251,348,4178,868
2.975452,289,4058,999
2.976652,232,3911,1008
2.977853,252,3950,1101
2.979053,263,3985,1026
2.980254,299,3945,926
2.981454,270,3966,805
3.018772,512,3903,602
3.019972,641,3730,447
3.021173,685,3449,260
3.022373,393,3227,-137
3.023574,398,3357,223
3.024774,453,3540,185
3.025974,313,3612,211
3.027175,364,3776,463
3.028375,287,3768,610
3.029576,259,3733,550
3.030776,316,3785,930
3.031977,312,3904,1199
3.033177,552,3714,1097
3.034378,508,3614,1341
3.035578,558,3532,1367
3.036779,620,3424,1400
3.037979,600,3091,1493
3.039180,637,3298,1460
3.040380,673,3285,1701
3.041581,689,3153,1653
3.055416,772,3082,1585
3.056616,643,2995,1687
3.057817,664,3105,1745
3.059017,802,3110,1516
3.060218,780,3007,1362
3.061418,829,2975,1336
3.062619,865,2839,1204
3.063819,827,2840,1087
3.065020,829,2861,1013
3.066220,829,2820,963
3.067421,892,2860,1040
3.068621,972,2975,1063
3.069822,918,2953,1230
3.071022,955,2931,1378
3.072223,1052,2929,1586
3.073423,1037,2702,1972
3.074624,995,2463,2070
3.075824,892,2351,2210
3.077025,1218,2611,2300
3.078225,1237,2639,2368
3.090939,1087,2253,2377
3.092139,498,1716,2149
3.093340,1472,2758,2049
3.094540,1627,3599,2371
3.095741,1705,3965,2788
3.096941,1679,3994,2936
3.098142,1751,3846,2994
3.099342,1700,3653,3235
3.100543,1533,3560,3146
3.101743,1487,3598,3471
3.102944,1334,3489,3215
3.104144,1295,3562,3329
3.105345,1292,3488,3305
3.106545,1255,3470,3348
3.107746,1201,3361,3308
3.108946,1279,3412,3313
3.110147,1337,3450,3385
3.111347,1358,3298,3251
3.112548,1392,3312,3347
3.113748,1400,3402,3455
3.130710,1433,3359,3412
3.131911,1451,3753,3202
3.133111,1468,3718,3240
3.134312,1436,3720,3362
3.135512,1520,3819,3399
3.136713,1549,3810,3341
3.137913,1591,3856,3461
3.139114,1580,3690,3408
3.140314,1582,3751,3412
3.141515,1579,3647,3497
3.142715,1285,3488,3469
3.143915,1575,3439,3538
3.145116,1516,3363,3609
3.146316,1554,3246,3547
3.147517,1610,3236,3621
3.148717,1606,3103,3508
3.149918,1773,3226,3408
3.151118,1706,3150,3364
3.152319,1700,3141,3539
3.153519,1693,3045,3451
3.192094,1749,3149,3236
3.193295,1711,3077,3357
3.194495,1672,3084,3206
3.195696,1713,3129,2991
3.196896,1591,3123,3196
3.198097,1650,3036,2903
3.199297,1598,3072,3080
3.200498,1606,3005,2630
3.201698,1581,3047,2832
3.202899,1653,3042,2737
3.204099,1604,3007,2785
3.205300,1563,2967,2793
3.206500,1608,2887,2742
3.207701,1659,2892,2726
3.208901,1631,2804,2776
3.210102,1677,2777,2717
3.211302,1614,2720,2881
3.212503,1621,2728,2927
3.213703,1600,2677,3053
3.214904,1661,2651,3161
3.192264,1646,2604,3273
3.193465,1669,2535,3386
3.194665,1660,2390,3613
3.195866,1710,2347,3874
3.197066,1801,2270,4118
3.198266,1848,2262,4220
3.199467,1958,2539,4355
3.200667,2035,2350,4474
3.201868,2053,2388,4525
3.203068,2037,2393,4614
3.204269,2086,2372,4608
3.205469,2113,2433,4548
3.206670,2098,2445,4543
3.207870,2045,2438,4577
3.209071,2018,2428,4584
3.210271,1999,2525,4551
3.211472,1769,4990,6239
3.212672,1330,5935,5910
3.213873,1360,4196,4979
3.215073,1433,2628,4588
3.268869,1555,2064,3781
3.270069,1783,1758,3934
3.271270,1916,1994,3661
3.272470,1965,1874,3605
3.273671,1961,1962,3539
3.274871,1914,2018,3268
3.276071,1879,2131,2936
3.277272,1762,2069,2802
3.278472,1716,2286,2848
3.279673,1719,2502,2823
3.280873,1755,2780,2806
3.282074,1701,2903,2819
3.283274,1657,3221,3038
3.284475,1511,3377,3013
3.285675,1367,3414,2965
3.286876,1133,3227,2994
3.288076,1200,3139,3067
3.289277,1120,3222,2972
3.290477,1085,2927,2838
3.291678,1092,2927,2862
3.269093,1027,2862,2936
3.270293,993,2815,3010
3.271494,878,2760,2962
3.272694,882,2759,2945
3.273895,838,3066,2975
3.275095,771,2890,2968
3.276296,816,2899,2937
3.277496,771,2976,2925
3.278697,804,3012,2866
3.279897,800,2997,2924
3.281098,798,3119,3003
3.282298,777,3202,2968
3.283499,582,3284,3232
3.284699,472,3738,3238
3.285900,445,3422,3107
3.287100,613,3291,2793
3.288301,689,3107,2499
3.289501,761,2926,2377
3.290702,747,2809,2102
3.291902,781,2813,2144
3.316296,708,2951,2033
3.317496,632,2889,1868
3.318697,563,2974,1636
3.319897,486,2979,1533
3.321097,468,3082,1357
3.322298,527,3131,1212
3.323498,533,3189,1128
3.324699,477,3235,1154
3.325899,443,3213,1296
3.327100,423,3185,1261
3.328300,428,3197,1513
3.329501,540,3207,1166
3.330701,500,3249,1127
3.331902,461,3228,1112
3.333102,477,3262,1009
3.334303,372,3258,828
3.335503,295,3270,726
3.336704,264,3342,401
3.337904,161,3318,408
3.339105,96,3344,214
3.354387,49,3403,66
3.355588,20,3467,-23
3.356788,-24,3531,-232
3.357989,-47,3618,-443
3.359189,-62,3700,-595
3.360390,-137,3735,-905
3.361590,-163,3825,-983
3.362791,-234,3913,-1106
3.363991,-250,4027,-1141
3.365192,-216,4350,-1205
3.366392,-254,4130,-1285
3.367592,-264,4155,-1195
3.368793,-246,4165,-1119
3.369993,-254,4214,-988
3.371194,-279,4206,-967
3.372394,-304,4224,-943
3.373595,-275,4251,-878
3.374795,-287,4246,-777
3.375996,-259,4326,-761
3.377196,-331,4319,-800
3.393105,-377,4301,-712
3.394306,-393,4400,-668
3.395506,-414,4453,-705
3.396707,-478,4432,-616
3.397907,-525,4523,-677
3.399108,-578,4632,-641
3.400308,-590,4804,-655
3.401509,-588,4869,-585
3.402709,-547,4929,-558
3.403910,-500,4924,-639
3.405110,-481,4960,-730
3.406311,-435,5009,-735
3.407511,-426,5093,-798
3.408712,-408,5166,-849
3.409912,-382,5210,-948
3.411113,-385,5322,-1262
3.412313,-381,5445,-1063
3.413514,-384,5506,-1132
3.414714,-398,5611,-1211
3.415915,-390,5725,-1258
3.446717,-394,5774,-1298
3.447918,-383,5907,-1351
3.449118,-394,5967,-1374
3.450319,-392,6026,-1441
3.451519,-380,6041,-1483
3.452720,-380,6083,-1529
3.453920,-365,5860,-2295
3.455120,-366,5689,-2243
3.456321,-349,5821,-1820
3.457521,-322,5965,-1816
3.458722,-367,6174,-1698
3.459922,-390,6321,-1638
3.461123,-395,6271,-1672
3.462323,-400,6304,-1633
3.463524,-365,6280,-1570
3.464724,-348,6246,-1647
3.465925,-384,6079,-1764
3.467125,-428,6131,-1773
3.468326,-410,6120,-1593
3.469526,-479,6020,-1673
3.505663,-512,6223,-1597
3.506864,-543,6066,-1770
3.508064,-539,5984,-1857
3.509265,-517,5934,-1694
3.510465,-472,6012,-1825
3.511666,-408,5981,-1850
3.512866,-395,5928,-2185
3.514067,-333,5768,-1932
3.515267,-415,5700,-2001
3.516468,-386,5648,-2105
3.517668,-395,5754,-1834
3.518869,-419,5609,-1992
3.520069,-476,5555,-2106
3.521270,-412,5583,-2221
3.522470,-518,5474,-1981
3.523671,-502,5482,-2124
3.524871,-675,5284,-2192
3.526072,-696,5235,-2143
3.527272,-644,5253,-1900
3.528473,-716,5217,-2002
3.505777,-701,5124,-2135
3.506977,-613,5315,-2192
3.508178,-663,5254,-2115
3.509378,-449,5372,-1965
3.510579,-596,5216,-1858
3.511779,-604,5181,-1871
3.512980,-604,5230,-1718
3.514180,-552,5402,-1631
3.515381,-628,5286,-1561
3.516581,-586,5272,-1477
3.517782,-672,5122,-1356
3.518982,-633,5174,-1243
3.520183,-592,4890,-1140
3.521383,-442,5001,-1117
3.522584,-429,4770,-1058
3.523784,-430,4616,-1106
3.524984,-438,4637,-1026
3.526185,-437,4552,-903
3.527385,-434,4482,-929
3.528586,-413,4540,-771
3.543638,-409,4502,-656
3.544838,-381,4526,-580
3.546039,-343,4463,-622
3.547239,-297,4500,-531
3.548440,-341,4460,-443
3.549640,-307,4384,-434
3.550840,-319,4359,-404
3.552041,-237,4332,-471
3.553241,-277,4205,-429
3.554442,-257,4231,-318
3.555642,-251,4206,-261
3.556843,-253,4215,-509
3.558043,-283,4169,-302
3.559244,-250,4131,-151
3.560444,-231,4105,-219
3.561645,-187,4070,-244
3.562845,-229,3998,-153
3.564046,-164,3989,41
3.565246,-152,3952,18
3.566447,-96,3936,58
3.581403,-79,3990,87
3.582604,-64,3936,126
3.583804,-120,3951,66
3.585005,-92,3980,114
3.586205,-126,4006,80
3.587406,-101,4045,12
3.588606,-183,4093,82
3.589807,-232,4114,10
3.591007,-171,4197,220
3.592208,-242,4063,176
3.593408,-116,4130,332
3.594608,-113,4223,413
3.595809,-131,4237,483
3.597009,-157,4237,509
3.598210,-169,4306,604
3.599410,-177,4240,830
3.600611,-149,4200,802
3.601811,-181,4146,998
3.603012,-199,4048,1155
3.604212,-185,4001,1172
3.621796,-191,3962,1403
3.622996,-172,3916,1381
3.624197,-139,3891,1545
3.625397,-163,3750,1576
3.626597,-107,3771,1659
3.627798,-47,3669,1949
3.628998,76,3604,1773
3.630199,27,3442,1861
3.631399,41,3444,2158
3.632600,81,3370,2115
3.633800,104,3289,2040
3.635001,170,3319,2079
3.636201,273,3327,2193
3.637402,301,3313,2227
3.638602,325,3309,2267
3.639803,429,3323,2344
3.641003,437,3312,2436
3.642204,578,3422,2534
3.643404,708,3372,2549
3.644605,730,3479,2603
3.680691,789,3410,2609
3.681892,795,3428,2603
3.683092,841,3395,2595
3.684293,880,3439,2731
3.685493,947,3430,2584
3.686694,899,3360,2562
3.687894,921,3377,2500
3.689095,919,3524,2611
3.690295,955,3469,2395
3.691496,1027,3490,2497
3.692696,1277,3572,2539
3.693897,1041,3568,2565
3.695097,1051,3559,2530
3.696298,1037,3487,2603
3.697498,1120,3575,2609
3.698699,1136,3611,2672
3.699899,1112,3562,2714
3.701100,1170,3586,2756
3.702300,1203,3536,2708
3.703500,1234,3491,2738
3.719496,1267,3404,2903
3.720696,1241,3328,2998
3.721897,1313,3253,3049
3.723097,1331,3212,3126
3.724298,1320,3072,3180
3.725498,1312,2912,3244
3.726699,1307,2880,3331
3.727899,1307,2815,3092
3.729100,1338,2641,3279
3.730300,1332,2624,3310
3.731500,1327,2492,3338
3.732701,1351,2458,3330
3.733901,1287,2424,3302
3.735102,1312,2399,3282
3.736302,1328,2348,3262
3.737503,1320,2283,3213
3.738703,1338,2306,3256
3.739904,1319,2220,3259
3.741104,1304,2264,3307
3.742305,1334,2202,3248
3.756099,1340,2186,3250
3.757300,1391,2184,3182
3.758500,1405,2291,3271
3.759701,1418,2277,3208
3.760901,1487,2287,3210
3.762102,1507,2318,3153
3.763302,1481,2363,3191
3.764503,1459,2317,3206
3.765703,1524,2427,3108
3.766903,1481,2421,3173
3.768104,1577,2449,3068
3.769304,1556,2455,3179
3.770505,1534,2416,3066
3.771705,1515,2373,3168
3.772906,1530,2379,3156
3.774106,1539,2406,3196
3.775307,1520,2364,3274
3.776507,1592,2343,3192
3.777708,1565,2318,3185
3.778908,1552,2312,3257
3.756264,1529,2547,3244
3.757464,1583,2430,3098
3.758665,1511,2400,3168
3.759865,1563,2359,3129
3.761066,1500,2365,3177
3.762266,1500,2353,3166
3.763467,1544,2402,3297
3.764667,1618,2455,3356
3.765868,1647,2439,3558
3.767068,1630,2375,3743
3.768269,1687,2399,3778
3.769469,1729,2389,3903
3.770670,1748,2351,3906
3.771870,1780,2357,3962
3.773071,1769,2354,3972
3.774271,1808,2362,4046
3.775471,1861,2409,4030
3.776672,1866,2405,4113
3.777872,1881,2456,4189
3.779073,1876,2416,4112
3.808287,1902,2458,4131
3.809487,1868,2412,4142
3.810688,1877,2461,4167
3.811888,1852,2419,4176
3.813089,1861,2427,4118
3.814289,1837,2410,4202
3.815490,1829,2402,4265
3.816690,1845,2374,4168
3.817891,1848,2360,4193
3.819091,1853,2294,4277
3.820292,1877,2372,4270
3.821492,1853,2380,4295
3.822693,1816,2375,4280
3.823893,1543,2405,4250
3.825094,1768,2356,4283
3.826294,1742,2400,4072
3.827495,1695,2371,4033
3.828695,1690,2330,3982
3.829896,1667,2315,3778
3.831096,1692,2355,3600
3.857785,1629,2371,3486
3.858985,1590,2355,3397
3.860185,1483,2344,3293
3.861386,1413,2302,3140
3.862586,1390,2403,3126
3.863787,1384,2353,2953
3.864987,1331,2397,3011
3.866188,1329,2435,3046
3.867388,1271,2421,3147
3.868589,1258,2418,3180
3.869789,1266,2463,3227
3.870990,1286,2465,3281
3.872190,1331,2501,3261
3.873391,1272,2545,3424
3.874591,1237,2476,3455
3.875792,1206,2491,3468
3.876992,1257,2558,3424
3.878193,1202,2495,3353
3.879393,1237,2589,3401
3.880594,1201,2628,3256
3.903334,1163,2663,3231
3.904535,1188,2674,3140
3.905735,1055,2653,3060
3.906936,1036,2714,2937
3.908136,940,2862,3556
3.909337,599,3701,3428
3.910537,475,3787,3350
3.911738,579,3282,2820
3.912938,661,2618,2648
3.914139,784,2501,2435
3.915339,828,2346,2328
3.916540,843,2461,2396
3.917740,751,2602,2522
3.918940,606,2560,2468
3.920141,502,2595,2312
3.921341,519,2638,2281
3.922542,603,2655,2189
3.923742,623,2765,2040
3.924943,666,2728,2000
3.926143,604,2800,2068
3.939774,626,2777,1986
3.940975,619,2789,1903
3.942175,638,2775,1872
3.943376,617,2861,1817
3.944576,562,2790,1543
3.945777,533,2837,1516
3.946977,572,2976,1538
3.948177,571,3099,1458
3.949378,578,3196,1473
3.950578,451,3241,1391
3.951779,373,3193,1363
3.952979,361,3232,1256
3.954180,395,3383,1044
3.955380,488,3579,1047
3.956581,288,3605,1097
3.957781,399,3715,1102
3.958982,231,3690,870
3.960182,43,3666,586
3.961383,-283,3776,689
3.962583,-84,3995,813
3.985805,54,3674,562
3.987006,107,3815,513
3.988206,143,3796,436
3.989407,261,3867,388
3.990607,282,3941,380
3.991808,199,3960,344
3.993008,189,4013,283
3.994209,158,4234,540
3.995409,66,4215,384
3.996610,89,4402,433
3.997810,69,4457,348
3.999011,44,4484,539
4.000211,-47,4639,350
4.001412,-91,4648,265
4.002612,-166,4711,336
4.003812,-130,4777,309
4.005013,-161,4866,318
4.006213,-267,4890,280
4.007414,-224,4898,131
4.008614,-251,4998,-15
4.031368,-360,5062,43
4.032569,-412,5016,29
4.033769,-462,5051,-25
4.034970,-482,5064,-244
4.036170,-551,5221,-128
4.037371,-464,5338,-334
4.038571,-580,5296,-450
4.039772,-646,5177,-603
4.040972,-787,5186,-581
4.042172,-708,5387,-660
4.043373,-764,5421,-656
4.044573,-959,5413,-835
4.045774,-859,5494,-844
4.046974,-797,5564,-935
4.048175,-806,5549,-1011
4.049375,-867,5514,-976
4.050576,-598,5816,-868
4.051776,-552,5825,-880
4.052977,-607,5844,-845
4.054177,-500,5911,-824
4.070703,-529,5928,-894
4.071904,-443,6063,-813
4.073104,-396,6006,-949
4.074305,-515,5909,-537
4.075505,-295,6145,-762
4.076706,-285,6105,-1026
4.077906,-539,5921,-983
4.079107,-278,5999,-1022
4.080307,-442,5993,-1217
4.081507,-668,5832,-1197
4.082708,-634,5925,-1476
4.083908,-683,5786,-1535
4.085109,-649,5720,-1636
4.086309,-627,6022,-1595
4.087510,-701,5643,-1813
4.088710,-798,5705,-1935
4.089911,-897,5639,-1877
4.091111,-639,5959,-1666
4.092312,-656,5885,-1720
4.093512,-540,5932,-1936
4.070845,-679,5753,-1733
4.072045,-611,5815,-1564
4.073246,-274,6015,-1612
4.074446,-492,5781,-1315
4.075646,-496,5722,-1154
4.076847,-304,6141,-1267
4.078047,-266,6024,-1054
4.079248,-429,5853,-838
4.080448,-398,5904,-892
4.081649,-250,6030,-870
4.082849,-201,5953,-787
4.084050,-498,5762,-768
4.085250,-218,5817,-642
4.086451,-199,5798,-456
4.087651,-160,5817,-595
4.088852,-172,5683,-585
4.090052,-167,5600,-679
4.091253,-253,5554,-610
4.092453,-3,5526,-559
4.093654,-176,5552,-632
4.109876,-136,5568,-640
4.111076,-163,5435,-564
4.112277,-201,5378,-523
4.113477,-225,5333,-493
4.114678,-237,5321,-498
4.115878,-245,5257,-425
4.117079,-299,5186,-434
4.118279,-410,5138,-465
4.119480,-711,4943,-1788
4.120680,-730,4845,-1719
4.121881,-651,5050,-789
4.123081,-565,4860,-417
4.124282,-639,4913,-464
4.125482,-581,4958,-641
4.126683,-585,4927,-539
4.127883,-575,4803,-415
4.129084,-579,4710,-408
4.130284,-509,4374,-336
4.131485,-338,4629,-184
4.132685,-279,4616,-282
4.169259,-322,4501,-234
4.170460,-388,4431,-292
4.171660,-168,4567,-296
4.172861,-146,4540,-278
4.174061,-174,4557,-233
4.175261,-192,4621,-66
4.176462,-217,4722,8
4.177662,-198,4782,-82
4.178863,-165,4628,-114
4.180063,-217,4460,-74
4.181264,-235,4625,-133
4.182464,-156,4634,-77
4.183665,-159,4606,-10
4.184865,-214,4405,-160
4.186066,-163,4245,-15
4.187266,-82,4188,-131
4.188467,241,4154,-165
4.189667,85,4258,-181
4.190868,97,4244,35
4.192068,-65,4235,-12
4.207238,-55,4319,90
4.208438,-8,4297,113
4.209639,35,4292,181
4.210839,66,4360,358
4.212040,183,4322,319
4.213240,150,4248,599
4.214441,155,4240,644
4.215641,138,4270,707
4.216842,202,4219,772
4.218042,219,4165,774
4.219243,197,4081,795
4.220443,185,4031,835
4.221644,148,4013,817
4.222844,-7,3939,892
4.224045,-10,3865,996
4.225245,135,4060,1160
4.226446,265,3803,881
4.227646,265,3853,943
4.228847,121,3813,1103
4.230047,-59,3751,1209
4.250144,-32,3826,1092
4.251345,-91,3709,1111
4.252545,-47,3757,1115
4.253746,-32,3783,1428
4.254946,-213,3925,1356
4.256147,-371,3958,1584
4.257347,-313,3946,1593
4.258548,-151,3683,1315
4.259748,-48,3341,1216
4.260949,187,3174,1031
4.262149,178,2976,1056
4.263350,90,3062,1199
4.264550,36,3458,1586
4.265751,175,3476,1888
4.266951,187,3613,1737
4.268152,148,3565,1950
4.269352,220,3407,1818
4.270553,356,3455,2075
4.271753,379,3384,2124
4.272954,417,3376,2225
4.290829,380,3287,2285
4.292029,749,3269,2333
4.293230,591,3314,2302
4.294430,659,3407,2504
4.295631,823,3450,2615
4.296831,905,3385,2475
4.298032,994,3491,2674
4.299232,1023,3467,2726
4.300433,1075,3523,2690
4.301633,1068,3639,2879
4.302834,1207,3687,2831
4.304034,1220,3633,2933
4.305235,1218,3664,2961
4.306435,1229,3538,2957
4.307636,1208,3552,3048
4.308836,1222,3613,3130
4.310037,1136,3420,2981
4.311237,1130,3374,2752
4.312438,1125,3356,2928
4.313638,1169,3366,2875
4.350574,1165,3360,2907
4.351774,1230,3385,2875
4.352975,1171,3305,2932
4.354175,1159,3193,3147
4.355375,1203,3123,3174
4.356576,1204,2968,3378
4.357776,1223,2719,3444
4.358977,1184,2699,3658
4.360177,1214,2601,3787
4.361378,1308,2576,3657
4.362578,1298,2520,3844
4.363779,1055,2299,3952
4.364979,967,2374,3729
4.366180,1152,2546,3859
4.367380,1202,2615,3738
4.368581,1347,2531,3861
4.369781,1396,2448,4066
4.370982,1510,2266,4084
4.372182,1526,2239,4053
4.373383,1528,2178,4100
4.350692,1461,2084,4083
4.351892,1424,2080,4177
4.353093,1360,2038,3938
4.354293,1310,2029,3915
4.355494,1334,1953,3900
4.356694,1378,1969,3955
4.357895,1404,1985,3950
4.359095,1360,1937,3958
4.360296,1378,1907,3975
4.361496,1382,1856,3890
4.362696,1387,1863,3887
4.363897,1420,1832,3840
4.365097,1435,1866,3834
4.366298,1453,1849,3762
4.367498,1423,1892,3732
4.368699,1427,1879,3746
4.369899,1424,1908,3691
4.371100,1426,1958,3692
4.372300,1404,1954,3663
4.373501,1394,2018,3604
4.385779,1379,2014,3575
4.386979,1364,1984,3584
4.388180,1366,1979,3605
4.389380,1373,1914,3628
4.390581,1375,1894,3707
4.391781,1400,1871,3792
4.392982,1408,1835,3838
4.394182,1420,1777,3864
4.395383,1452,1743,3902
4.396583,1474,1752,3972
4.397784,1524,1764,4296
4.398984,1518,1860,4172
4.400185,1559,1890,4233
4.401385,1581,1930,4297
4.402586,1568,1872,4359
4.403786,1585,1819,4491
4.404987,1664,1805,4606
4.406187,1691,1800,4639
4.407388,1778,1810,4658
4.408588,1857,1818,4701
4.436375,1862,1806,4695
4.437575,1870,1825,4674
4.438776,1901,1865,4590
4.439976,1906,1931,4558
4.441177,1849,1928,4549
4.442377,1829,1942,4467
4.443578,1797,2047,4449
4.444778,1720,2002,4397
4.445979,1697,2094,4404
4.447179,1639,2124,4332
4.448380,1615,2150,4305
4.449580,1610,2170,4282
4.450781,1605,2172,4090
4.451981,1539,2325,4192
4.453182,1505,2345,4199
4.454382,1487,2501,4272
4.455583,1198,3489,4941
4.456783,1061,3480,4764
4.457984,1066,2922,4776
4.459184,1122,2404,4182
4.478650,1139,2252,3739
4.479851,1194,2294,3669
4.481051,1154,2034,3571
4.482252,1126,2193,3443
4.483452,1052,2245,3316
4.484653,1035,2282,3224
4.485853,862,2255,2934
4.487054,710,2352,2834
4.488254,684,2294,2671
4.489455,593,2501,2654
4.490655,426,2516,2675
4.491855,402,2689,2635
4.493056,455,2742,2487
4.494256,362,2951,2549
4.495457,162,2858,2712
4.496657,92,2936,2736
4.497858,61,3006,2755
4.499058,63,2887,2634
4.500259,21,3097,2675
4.501459,4,3083,2669
4.530538,-10,2973,2550
4.531739,2,2832,2414
4.532939,47,2784,2072
4.534140,64,2742,2135
4.535340,56,2745,2058
4.536541,79,2783,1821
4.537741,74,2758,1725
4.538942,23,2752,1448
4.540142,49,2863,1499
4.541343,-224,2912,1518
4.542543,26,2961,1383
4.543744,-118,3114,1376
4.544944,-164,3480,1247
4.546145,-186,3703,1261
4.547345,-142,3660,1064
4.548546,-115,3733,954
4.549746,-124,3811,906
4.550947,-201,3935,914
4.552147,-262,3938,902
4.553348,-298,4032,873
4.571490,-320,4176,895
4.572691,-307,4256,972
4.573891,-306,4338,973
4.575092,-315,4365,985
4.576292,-279,4386,938
4.577493,-281,4395,1071
4.578693,-174,4415,777
4.579894,-200,4413,1040
4.581094,-201,4368,992
4.582295,-197,4415,1020
4.583495,-189,4421,909
4.584696,-246,4525,935
4.585896,-233,4500,920
4.587097,-190,4575,809
4.588297,-171,4617,671
4.589498,-231,4581,572
4.590698,-255,4587,535
4.591899,-264,4626,441
4.593099,-255,4667,501
4.594300,-274,4729,365
4.650247,-1,4794,16
4.651447,-293,4828,-93
4.652648,-291,4925,11
4.653848,-239,5029,-140
4.655049,-276,5174,-181
4.656249,-283,5235,-236
4.657450,-356,5278,-123
4.658650,-352,5453,-139
4.659851,-367,5593,-114
4.661051,-523,5783,83
4.662252,-568,6119,-55
4.663452,-624,5993,-131
4.664653,-460,5715,-350
4.665853,-242,5911,-718
4.667054,-189,5648,-746
4.668254,-288,5593,-675
4.669455,-381,5630,-408
4.670655,-233,5865,-560
4.671855,-164,5901,-562
4.673056,-50,5957,-527
4.650370,-187,6047,-361
4.651570,-183,6184,-186
4.652771,-159,6251,-364
4.653971,-256,6166,-315
4.655172,-318,6118,-301
4.656372,-228,6126,-298
4.657573,-153,6031,-574
4.658773,-115,6013,-448
4.659974,-163,5939,-340
4.661174,-196,5766,-262
4.662375,-148,5856,-476
4.663575,170,5923,-501
4.664776,94,5803,-350
4.665976,45,5700,-483
4.667177,-165,5513,-416
4.668377,-135,5630,-373
4.669578,-15,5738,-550
4.670778,-53,5557,-489
4.671979,34,5596,-675
4.673179,37,5438,-732
4.650444,-52,5292,-739
4.651644,-141,5303,-610
4.652845,-160,5431,-674
4.654045,-185,5337,-596
4.655246,-81,5458,-876
4.656446,-123,5319,-959
4.657647,-104,5148,-1009
4.658847,-2,5186,-1028
4.660048,-26,5113,-1131
4.661248,-57,5088,-1198
4.662449,-82,5080,-1281
4.663649,-180,5046,-1244
4.664850,-135,5130,-1438
4.666050,-218,5046,-1586
4.667251,-342,5065,-1824
4.668451,-261,5122,-2004
4.669651,-208,5130,-2139
4.670852,-208,5175,-2113
4.672052,-266,5196,-2109
4.673253,-296,5215,-2186
4.710561,-295,5138,-2150
4.711761,-337,5185,-2099
4.712962,-170,5141,-2130
4.714162,-62,5207,-2061
4.715363,-28,5186,-1837
4.716563,-20,5178,-1717
4.717764,1,5243,-1729
4.718964,116,5273,-1710
4.720165,202,5318,-1651
4.721365,208,5305,-1614
4.722566,256,5394,-1683
4.723766,308,5383,-1711
4.724967,316,5463,-1634
4.726167,305,5511,-1647
4.727368,200,5573,-1598
4.728568,-44,5538,-1607
4.729768,-162,5390,-1286
4.730969,-238,5345,-1509
4.732169,-246,5330,-1517
4.733370,-180,5266,-1468
4.751539,-126,5256,-1461
4.752739,68,5236,-1230
4.753940,275,5322,-1096
4.755140,355,5412,-1088
4.756341,394,5462,-1117
4.757541,335,5508,-1005
4.758742,181,5584,-907
4.759942,143,5698,-725
4.761143,6,5879,-734
4.762343,-53,5658,-594
4.763544,-137,5664,-580
4.764744,-246,5545,-466
4.765945,-378,5525,-362
4.767145,-429,5351,-39
4.768346,-390,5299,-28
4.769546,-406,5213,227
4.770747,-405,5090,466
4.771947,-445,5087,567
4.773148,-438,4989,723
4.774348,-435,4950,953
4.787495,-530,4825,1192
4.788695,-552,4654,1284
4.789896,-515,4583,1466
4.791096,-457,4519,1654
4.792297,-479,4406,1837
4.793497,-472,4259,2045
4.794697,-480,4142,2157
4.795898,-468,3892,2219
4.797098,-429,3766,2269
4.798299,-411,3729,2350
4.799499,-418,3626,2513
4.800700,-371,3549,2587
4.801900,-371,3470,2625
4.803101,-345,3388,2658
4.804301,-326,3321,2698
4.805502,-233,3273,2747
4.806702,-176,3289,2765
4.807903,-94,3255,2786
4.809103,-89,3186,2862
4.810304,-37,3166,2996
4.838002,31,3106,3126
4.839203,53,3052,3176
4.840403,136,2938,3331
4.841604,207,2910,3444
4.842804,294,2792,3565
4.844005,316,2646,3611
4.845205,390,2332,3674
4.846406,396,2385,3776
4.847606,383,2160,3793
4.848807,389,2068,3680
4.850007,504,2095,3783
4.851208,587,2101,3940
4.852408,631,2008,4006
4.853608,690,1982,4082
4.854809,741,1932,4124
4.856009,774,1872,4157
4.857210,807,1848,4231
4.858410,829,1798,4302
4.859611,856,1715,4415
4.860811,862,1622,4482
4.888195,910,1579,4633
4.889396,960,1577,4842
4.890596,986,1584,4940
4.891797,987,1535,5098
4.892997,1028,1455,5226
4.894198,1076,1389,5314
4.895398,1084,1262,5473
4.896599,1145,1147,5582
4.897799,1267,981,4557
4.899000,1703,-809,3737
4.900200,1784,-724,4395
4.901401,1674,-331,5073
4.902601,1844,730,5957
4.903802,1777,1454,6126
4.905002,1683,1453,6371
4.906203,1627,1478,6227
4.907403,1661,1421,6090
4.908604,1696,915,5861
4.909804,1732,846,5652
4.911005,1766,703,5873
4.938345,1835,656,5832
4.939546,1871,627,6082
4.940746,1855,667,6345
4.941947,1856,831,6467
4.943147,1777,871,6491
4.944348,1803,1010,6378
4.945548,1756,1020,6323
4.946749,1724,1107,6087
4.947949,1649,1093,6020
4.949150,1567,1233,5752
4.950350,1499,1317,5727
4.951551,1483,1365,5508
4.952751,1406,1478,5322
4.953952,1374,1491,5244
4.955152,1247,1412,5026
4.956353,1167,1335,4856
4.957553,1086,1237,4631
4.958754,1037,1173,4527
4.959954,967,1177,4251
4.961155,927,1232,4090
4.938453,879,1251,3789
4.939654,885,1636,3698
4.940854,896,1658,3918
4.942055,855,1845,3614
4.943255,740,1726,2471
4.944456,116,1527,1540
4.945656,73,1719,1243
4.946857,46,1698,1257
4.948057,191,1916,1349
4.949258,495,2389,1304
4.950458,459,2889,575
4.951659,311,2941,427
4.952859,117,2966,10
4.954059,62,2965,-267
4.955260,19,3065,-244
4.956460,-66,3335,-279
4.957661,-26,3491,-749
4.958861,252,3795,-1150
4.960062,11,4071,-1438
4.961262,19,4275,-1859
4.976680,126,4539,-2039
4.977880,287,4732,-2801
4.979081,726,4270,-3163
4.980281,879,4322,-3161
4.981482,849,4825,-3003
4.982682,574,5333,-3343
4.983883,776,5519,-3029
4.985083,816,5593,-3165
4.986284,492,5418,-3254
4.987484,-1352,6743,-3640
4.988685,-429,6650,-3212
4.989885,-196,5866,-2957
4.991086,-199,4726,-1409
4.992286,453,4370,-380
4.993487,1240,3959,579
4.994687,1513,3643,1231
4.995888,1974,3820,2629
4.997088,2441,3746,3282
4.998289,2448,3887,3593
4.999489,2409,4042,4177
5.015003,2267,4197,4350
5.016204,2219,4678,3941
5.017404,2077,5070,3501
5.018605,1652,5205,2784
5.019805,1167,5547,2351
5.021006,1017,5806,2195
5.022206,824,6058,1413
5.023407,970,6169,807
5.024607,1061,6167,245
5.025808,1041,5431,-323
5.027008,911,4823,-798
5.028209,884,4037,-1027
5.029409,883,3949,-949
5.030610,820,4058,-537
5.031810,785,4178,-610
5.033011,776,4346,-189
5.034211,861,4623,-52
5.035411,921,4741,462
5.036612,938,4958,885
5.037812,942,5031,1041
5.067248,811,5010,1430
5.068449,841,5140,1522
5.069649,752,5112,1537
5.070850,574,5181,1417
5.072050,618,5103,1524
5.073251,481,4891,1851
5.074451,459,4789,1831
5.075652,398,4793,1806
5.076852,504,4688,2322
5.078052,483,4267,2763
5.079253,591,4560,2531
5.080453,953,4400,2070
5.081654,1058,4020,2340
5.082854,840,3757,2301
5.084055,932,3786,2330
5.085255,741,3833,2483
5.086456,614,3875,2200
5.087656,811,3770,2244
5.088857,841,3814,2329
5.090057,792,3872,2843
5.118511,879,3817,2671
5.119711,751,3773,2861
5.120912,615,3612,2632
5.122112,720,3986,2803
5.123313,698,4106,2785
5.124513,822,4084,3006
5.125714,748,3965,2821
5.126914,837,4139,2893
5.128115,985,4348,3192
5.129315,920,4397,3269
5.130516,984,4569,3366
5.131716,875,4783,2986
5.132916,995,4843,3306
5.134117,887,4848,2822
5.135317,845,4839,3132
5.136518,719,4637,2931
5.137718,626,4265,2494
5.138919,631,3894,2392
5.140119,605,4088,1994
5.141320,533,4135,1848
5.156009,427,4291,1629
5.157209,352,4444,1433
5.158410,314,4567,1338
5.159610,323,4606,1194
5.160811,346,4439,1355
5.162011,448,4451,1741
5.163212,518,4550,2059
5.164412,321,4586,1951
5.165613,428,4679,1797
5.166813,363,4734,1658
5.168014,362,4763,1416
5.169214,422,4702,1454
5.170415,457,4641,1363
5.171615,620,4506,1386
5.172816,718,4378,1380
5.174016,905,4317,1498
5.175216,992,4253,1690
5.176417,1042,4237,1804
5.177617,1083,4155,1790
5.178818,1011,4030,1501
5.192464,880,3782,1642
5.193664,813,3541,1675
5.194865,758,3211,1822
5.196065,732,2669,32764
5.197266,-4295,-32764,32764
5.198466,1739,-11152,8605
5.199667,3380,-1775,-17890
5.200867,159,6314,-12968
5.202068,-2228,8469,-9569
5.203268,-4696,10660,-3382
5.204469,-4415,11087,-2934
5.205669,-3493,11560,-2030
5.206870,-2800,11288,-1492
5.208070,-1840,10462,-743
5.209271,-738,7709,-1265
5.210471,-469,4923,-1496
5.211672,289,3542,-1472
5.212872,961,3425,-1690
5.214073,1065,3470,-1646
5.215273,1332,3894,-1413
5.249236,1743,4234,-1982
5.250437,1949,4873,-2344
5.251637,1889,5034,-2525
5.252838,2062,5442,-2547
5.254038,1974,5644,-2441
5.255239,1735,6270,-2289
5.256439,1334,6773,-2116
5.257640,1036,7029,-2064
5.258840,921,7395,-2071
5.260041,797,7459,-2261
5.261241,525,7561,-2282
5.262442,315,7407,-2492
5.263642,8,7323,-2383
5.264843,218,7195,-2287
5.266043,265,7149,-2412
5.267244,250,7009,-2441
5.268444,248,6971,-2360
5.269645,243,6689,-2095
5.270845,242,6667,-1530
5.272046,312,6270,-1442
5.249357,490,6016,-1098
5.250557,646,5778,-229
5.251758,560,4524,901
5.252958,508,3466,1707
5.254159,-816,34,5252
5.255359,-25,-1512,5381
5.256560,502,1600,5820
5.257760,1261,2814,5494
5.258961,1224,2780,5090
5.260161,1227,2757,4759
5.261362,1265,2774,4737
5.262562,1193,2780,4616
5.263763,1150,2555,4324
5.264963,1104,2522,4389
5.266164,1255,2815,4286
5.267364,1337,3016,4154
5.268564,1316,3014,3479
5.269765,1253,2614,3182
5.270965,1126,2411,2421
5.272166,997,2200,1718
5.311594,1029,2512,1594
5.312795,968,3055,1590
5.313995,981,3243,1908
5.315196,869,3755,2014
5.316396,819,3740,1891
5.317597,772,3983,1622
5.318797,767,4097,1247
5.319998,688,4055,1215
5.321198,623,3936,1175
5.322399,610,3969,1094
5.323599,633,4262,1206
5.324800,561,4484,982
5.326000,587,4533,1169
5.327201,625,4919,1365
5.328401,644,5376,1443
5.329601,754,5459,1462
5.330802,848,5611,1577
5.332002,917,5588,1444
5.333203,917,5384,1360
5.334403,930,5319,1305
5.355604,848,5163,1492
5.356804,879,5285,1443
5.358005,840,5278,1519
5.359205,864,5364,1539
5.360406,829,5269,1564
5.361606,898,5013,1429
5.362807,963,4969,1715
5.364007,910,4671,1561
5.365208,952,4348,1765
5.366408,962,4236,1955
5.367609,-1476,-16762,32764
5.368809,-3241,-23449,32764
5.370010,939,-74,1348
5.371210,3886,6269,-8961
5.372411,-1906,8009,-5677
5.373611,-3812,6540,-3102
5.374812,-2845,5716,63
5.376012,-668,5732,470
5.377212,-129,5929,682
5.378413,383,6102,374
5.400903,696,5849,-243
5.402104,847,5146,-73
5.403304,1150,4730,-361
5.404505,1154,4550,-654
5.405705,1103,4301,-877
5.406906,1063,4328,-1058
5.408106,1106,4373,-1238
5.409307,1332,4561,-1473
5.410507,1400,4605,-1685
5.411708,1344,4624,-1996
5.412908,1183,4688,-2234
5.414109,768,4843,-2388
5.415309,559,4823,-2230
5.416510,375,5194,-2010
5.417710,444,5396,-1920
5.418911,537,5813,-1940
5.420111,602,6061,-2217
5.421312,648,6131,-2560
5.422512,687,6276,-2886
5.423712,688,6393,-3038
5.444978,687,6435,-3043
5.446178,661,6384,-2732
5.447378,630,6300,-2634
5.448579,544,6169,-2327
5.449779,632,6056,-1675
5.450980,531,5798,-1249
5.452180,507,5600,-773
5.453381,443,5351,1092
5.454581,516,4887,5339
5.455782,627,3935,6856
5.456982,1310,3470,9100
5.458183,1427,2753,7375
5.459383,1356,1887,5712
5.460584,1444,1612,5052
5.461784,1173,1479,3687
5.462985,884,1312,3264
5.464185,857,1244,3094
5.465386,660,1174,2856
5.466586,656,1232,2817
5.467787,614,1311,2942
5.517258,555,1295,2668
5.518458,567,1380,2013
5.519659,479,1286,1933
5.520859,427,1826,1980
5.522060,526,2714,1784
5.523260,700,3142,1485
5.524461,683,3752,1584
5.525661,707,4087,1553
5.526862,752,4165,1569
5.528062,894,4361,1807
5.529263,988,4518,1863
5.530463,1158,4567,1920
5.531664,1213,4453,2100
5.532864,1307,4532,1956
5.534065,1312,4537,2079
5.535265,1246,4591,1854
5.536465,1162,4654,1777
5.537666,1139,4819,1641
5.538866,1092,4867,1526
5.540067,1014,4894,1392
5.517584,999,4751,1231
5.518785,949,4734,1208
5.519985,840,4688,1296
5.521186,895,4736,1244
5.522386,875,4747,1210
5.523587,881,4785,1303
5.524787,887,4703,1390
5.525988,925,4622,1376
5.527188,960,4437,1323
5.528389,987,4282,1338
5.529589,1018,4028,1363
5.530790,994,3800,1570
5.531990,685,49,32764
5.533191,607,-20026,26637
5.534391,2422,-4602,5281
5.535592,3370,5398,-9493
5.536792,-327,6034,-5380
5.537993,-1740,5717,367
5.539193,-1235,5214,1068
5.540393,273,5252,1226
5.517675,916,5061,861
5.518875,910,4382,648
5.520076,959,3937,567
5.521276,1169,3883,676
5.522477,1323,3611,926
5.523677,1425,3366,598
5.524878,1209,3270,561
5.526078,1219,3315,520
5.527279,1268,3611,377
5.528479,1272,3760,-157
5.529680,1276,3883,-723
5.530880,1289,3993,-953
5.532081,1274,4226,-1241
5.533281,1213,4364,-1347
5.534482,1159,4612,-1339
5.535682,1199,4860,-1419
5.536883,992,4995,-1642
5.538083,744,5090,-1791
5.539283,736,5298,-1817
5.540484,703,5616,-1955
5.562441,686,5701,-2123
5.563642,662,5785,-2225
5.564842,643,5669,-2214
5.566043,601,5604,-1880
5.567243,691,5490,-1701
5.568444,651,5300,-1218
5.569644,813,5325,-100
5.570845,846,5350,1187
5.572045,1148,6381,5448
5.573246,925,9913,8074
5.574446,689,6927,5470
5.575647,1156,3231,3051
5.576847,1241,1453,2720
5.578048,1415,842,2892
5.579248,1521,696,3662
5.580449,1534,440,3872
5.581649,1439,354,4087
5.582849,1287,438,4003
5.584050,1175,675,3550
5.585250,1115,955,3280
5.599064,1026,1118,2773
5.600265,913,1355,2309
5.601465,884,1608,2192
5.602666,816,1792,1956
5.603866,748,1841,1617
5.605066,739,2062,1182
5.606267,767,2498,994
5.607467,833,3106,560
5.608668,804,3481,469
5.609868,516,3920,489
5.611069,753,4260,884
5.612269,867,4465,1344
5.613470,1034,4793,1611
5.614670,1110,4975,1749
5.615871,1290,5049,1982
5.617071,1449,5120,2232
5.618272,1505,5157,2376
5.619472,1408,4977,2389
5.620673,1312,4824,2545
5.621873,1434,4873,2106
5.651624,1505,5046,2026
5.652824,1508,5084,1955
5.654024,1453,5049,1856
5.655225,1427,5099,1850
5.656425,1361,4923,1984
5.657626,1266,4896,1855
5.658826,1143,4641,1649
5.660027,1109,4463,1550
5.661227,1037,4508,1436
5.662428,955,4377,1403
5.663628,902,4315,1327
5.664829,827,4206,1313
5.666029,859,4156,1360
5.667230,841,3977,1382
5.668430,832,3811,1353
5.669631,854,3747,1516
5.670831,877,3618,5462
5.672032,493,-20133,32764
5.673232,1307,-8454,25005
5.674433,2942,-1319,-5032
5.703624,1595,6131,-10035
5.704824,-513,6270,-7095
5.706025,-1648,5936,-617
5.707225,68,5694,699
5.708426,862,5924,357
5.709626,1216,5395,-20
5.710827,1160,5165,-169
5.712027,1463,4782,-147
5.713228,1341,4383,-95
5.714428,1327,4234,17
5.715628,1126,3988,-33
5.716829,1112,3909,-69
5.718029,1188,4247,-46
5.719230,1364,4244,-283
5.720430,1388,4373,-550
5.721631,1292,4453,-1090
5.722831,1139,4459,-1357
5.724032,956,4500,-1420
5.725232,837,4450,-1378
5.726433,774,4504,-1316
5.741002,777,4776,-1418
5.742203,797,5065,-1493
5.743403,822,5245,-1660
5.744604,804,5286,-1806
5.745804,830,5321,-1808
5.747005,832,5370,-1879
5.748205,844,5379,-1653
5.749406,868,5358,-1422
5.750606,878,5287,-1390
5.751807,890,5199,-280
5.753007,935,5078,46
5.754208,1233,5226,3341
5.755408,1090,8001,5790
5.756609,723,7983,7267
5.757809,1231,4047,3268
5.759010,1427,2118,2177
5.760210,1416,1718,2035
5.761411,1485,1436,2910
5.762611,1491,1120,3471
5.763812,1450,795,3639
5.775298,1254,600,3437
5.776499,1097,622,2936
5.777699,1018,951,2675
5.778900,852,1381,2127
5.780100,707,1727,1929
5.781301,684,2478,1726
5.782501,575,3144,1624
5.783702,606,3444,1523
5.784902,764,3921,1443
5.786103,841,4269,1498
5.787303,988,4366,1534
5.788503,1108,4373,1714
5.789704,1138,4203,1745
5.790904,1259,4087,1919
5.792105,1372,4069,2120
5.793305,1360,4100,2196
5.794506,1342,4069,2283
5.795706,1342,4089,2404
5.796907,1397,4268,2349
5.798107,1397,4507,2282
5.825877,1428,4675,2075
5.827077,1404,4739,1920
5.828278,1350,4765,1857
5.829478,1365,4685,1749
5.830679,1241,4620,1567
5.831879,1145,4512,1453
5.833079,1070,4494,1278
5.834280,919,4513,1210
5.835480,814,4466,1129
5.836681,514,4400,1171
5.837881,705,4317,1249
5.839082,727,4214,1382
5.840282,768,4039,1472
5.841483,777,3892,1564
5.842683,839,3721,1728
5.843884,908,3630,1755
5.845084,936,3383,1796
5.846285,961,3122,1887
5.847485,1004,2993,1912
5.848686,1022,2768,1950
5.826096,1010,2581,1978
5.827297,1053,2525,2131
5.828497,-3455,-20389,32764
5.829698,2568,-13386,31579
5.830898,2600,2491,-1015
5.832099,2727,5879,-10947
5.833299,-1347,6309,-4098
5.834500,-1941,5660,-469
5.835700,-426,5746,1742
5.836900,1131,5834,821
5.838101,1209,5480,610
5.839301,1061,4905,393
5.840502,1045,4557,420
5.841702,1132,4272,191
5.842903,1185,4077,145
5.844103,1165,3960,99
5.845304,1250,3923,66
5.846504,1366,4009,105
5.847705,1565,4211,51
5.848905,1665,4240,-130
5.875933,1649,4474,-293
5.877133,1593,4768,-646
5.878334,1453,4931,-972
5.879534,1332,5155,-1109
5.880735,1285,5420,-1143
5.881935,1227,5634,-1231
5.883136,1103,5701,-1359
5.884336,948,5828,-1779
5.885537,891,5941,-1705
5.886737,865,5961,-1674
5.887938,850,6085,-1804
5.889138,874,6137,-1724
5.890339,941,6129,-1716
5.891539,935,5945,-1447
5.892740,1226,5783,-688
5.893940,1074,5579,-681
5.895141,1174,5474,1777
5.896341,1454,6147,5310
5.897542,1576,8950,7548
5.898742,1230,3828,4136
5.922012,1452,2365,1587
5.923212,1756,1292,1551
5.924413,1582,1173,2556
5.925613,1473,1033,3406
5.926813,1300,777,3603
5.928014,1212,775,3457
5.929214,1014,822,2867
5.930415,866,1184,2429
5.931615,804,1646,2398
5.932816,726,2168,2118
5.934016,637,2449,2152
5.935217,598,3010,2120
5.936417,657,3466,2099
5.937618,727,3626,2203
5.938818,915,3893,2220
5.940019,970,3998,2256
5.941219,1157,3918,2263
5.942420,1279,3880,2319
5.943620,1382,3722,2323
5.944821,1423,3669,2378
5.958045,1454,3666,2309
5.959245,1456,3725,2278
5.960446,1436,3759,2252
5.961646,1369,3895,2109
5.962847,1288,3947,2037
5.964047,1215,4011,1995
5.965248,1194,4129,1894
5.966448,1073,4137,1618
5.967648,973,4212,1531
5.968849,912,4307,1489
5.970049,816,4353,1266
5.971250,761,4400,1306
5.972450,763,4370,1175
5.973651,702,4286,1100
5.974851,715,4271,1144
5.976052,688,4193,1134
5.977252,702,4158,1170
5.978453,716,4161,1208
5.979653,773,4175,1371
5.980854,797,4191,1402
6.020614,869,4107,1527
6.021815,954,4042,1696
6.023015,1023,3859,1835
6.024216,1068,3629,1895
6.025416,1121,3487,1960
6.026617,1165,3219,2000
6.027817,1167,3009,2016
6.029018,735,-17642,26175
6.030218,1303,-16537,23522
6.031419,3100,-2001,-1987
6.032619,3601,5570,-8614
6.033820,685,6139,-5067
6.035020,-1337,5642,815
6.036221,-996,5088,1997
6.037421,450,5433,1738
6.038622,879,5252,847
6.039822,860,4823,124
6.041023,909,4600,-95
6.042223,1128,4505,-275
6.043423,1093,4241,-262
6.070927,1024,4140,-355
6.072128,1080,4221,-237
6.073328,1244,4263,-119
6.074528,1535,4481,-21
6.075729,1595,4617,-133
6.076929,1559,4685,-407
6.078130,1456,4828,-705
6.079330,1424,5052,-873
6.080531,1367,5243,-923
6.081731,1269,5309,-930
6.082932,1233,5394,-874
6.084132,1169,5509,-921
6.085333,983,5536,-1001
6.086533,905,5514,-1100
6.087734,881,5619,-1097
6.088934,920,5661,-1210
6.090135,936,5699,-1290
6.091335,934,5622,-1208
6.092536,953,5451,-1181
6.093736,964,5418,-1156
6.106211,974,5255,-375
6.107411,1031,5062,-33
6.108612,1097,5045,720
6.109812,1265,5453,3583
6.111013,1725,9457,4639
6.112213,1155,5748,5200
6.113414,1048,3772,1788
6.114614,1312,1825,1512
6.115815,1414,1527,2085
6.117015,1445,1488,3151
6.118215,1346,1119,3466
6.119416,1237,745,3303
6.120616,1095,717,2958
6.121817,980,798,2439
6.123017,871,1054,2269
6.124218,839,1474,2091
6.125418,772,2303,2068
6.126619,741,2460,2022
6.127819,717,3066,2038
6.129020,777,3666,2083
6.143782,906,3893,2133
6.144983,1050,4137,2194
6.146183,1136,4108,2270
6.147384,1239,4026,2354
6.148584,1329,3862,2456
6.149785,1354,3717,2464
6.150985,1408,3648,2430
6.152186,1390,3604,2367
6.153386,1358,3573,2055
6.154586,1305,3575,2254
6.155787,1274,3623,2017
6.156987,1206,3612,1914
6.158188,1164,3649,1792
6.159388,1147,3693,1693
6.160589,1077,3896,1533
6.161789,1023,4124,1499
6.162990,909,4339,1426
6.164190,860,4447,1364
6.165391,866,4568,1379
6.166591,892,4590,1373
6.143924,910,4532,1510
6.145125,965,4505,1572
6.146325,1249,4486,1584
6.147526,1060,4395,1661
6.148726,1114,4326,1710
6.149927,1132,4220,1797
6.151127,1129,4069,1826
6.152328,1137,3976,1856
6.153528,1126,3798,1841
6.154729,1101,3616,1875
6.155929,1099,3451,1829
6.157130,1055,3391,1815
6.158330,1021,3273,1784
6.159531,1010,3175,1762
6.160731,1008,3156,1761
6.161932,984,3063,1754
6.163132,1004,3074,1785
6.164333,1078,-5846,12675
6.165533,199,-9590,20296
6.166733,2556,-3250,6451
6.180608,2707,3959,-695
6.181809,1409,4970,-4652
6.183009,130,4839,290
6.184210,-4,4569,1959
6.185410,597,4559,2099
6.186610,988,4520,1030
6.187811,981,4234,546
6.189011,1029,3987,773
6.190212,1116,3886,705
6.191412,1149,3777,512
6.192613,1102,3723,393
6.193813,1062,3839,192
6.195014,1227,3914,203
6.196214,1334,4180,189
6.197415,1493,4334,29
6.198615,1533,4463,-202
6.199816,1493,4613,-540
6.201016,1440,4719,-650
6.202217,1334,5032,-717
6.203417,1258,4953,-706
6.239250,1205,5143,-730
6.240451,997,5143,-803
6.241651,886,5165,-665
6.242852,926,5372,-744
6.244052,965,5572,-760
6.245253,1017,5588,-745
6.246453,1047,5571,-756
6.247654,1062,5468,-800
6.248854,1121,5365,-673
6.250054,1125,5246,-201
6.251255,1156,5039,171
6.252455,1163,4951,446
6.253656,1186,4651,1369
6.254856,1047,4596,3040
6.256057,54,3835,4845
6.257257,878,3157,3396
6.258458,1454,2910,2461
6.259658,1421,2409,3032
6.260859,1431,2292,3227
6.262059,1467,2286,3833
6.289844,1452,2168,3890
6.291044,1450,2073,3813
6.292245,1390,2187,3517
6.293445,1360,2254,3228
6.294646,1285,2532,3148
6.295846,1238,2725,2914
6.297047,1161,2814,2571
6.298247,1068,2945,2294
6.299448,1038,3091,2151
6.300648,1079,3219,1915
6.301848,1050,3252,1769
6.303049,1032,3268,1750
6.304249,1019,3347,1657
6.305450,1020,3412,1628
6.306650,1017,3482,1593
6.307851,1032,3553,1563
6.309051,1017,3549,1564
6.310252,1046,3548,1427
6.311452,1050,3452,1381
6.312653,1030,3300,1365
6.329729,1009,3246,1325
6.330929,986,3317,1263
6.332130,974,3496,1226
6.333330,993,3617,1150
6.334531,1008,3868,1110
6.335731,1275,4071,1124
6.336932,1025,4176,1234
6.338132,1055,4210,1314
6.339333,1101,4159,1423
6.340533,1130,4054,1490
6.341734,1104,4309,1571
6.342934,1096,4205,1574
6.344135,1109,4505,1519
6.345335,1112,4689,1469
6.346536,1132,4719,1500
6.347736,1156,4681,1567
6.348937,1180,4559,1722
6.350137,1196,4494,1894
6.351338,1227,4369,1990
6.352538,1244,4243,2035
6.369050,1252,4113,2084
6.370251,1277,4036,2132
6.371451,1326,3865,2128
6.372651,1321,3689,2119
6.373852,1351,3615,2160
6.375052,1376,3490,2157
6.376253,1374,3387,2127
6.377453,1298,3253,2159
6.378654,1206,3200,3461
6.379854,-2778,-15690,32711
6.381055,748,-8218,24530
6.382255,3245,-865,-4053
6.383456,2035,5443,-10092
6.384656,759,5763,-6261
6.385857,-463,6107,526
6.387057,87,5835,1253
6.388258,735,5644,174
6.389458,709,5099,72
6.390659,874,4883,-92
6.391859,1027,4306,-37
6.408319,1081,4113,-3
6.409519,1051,4056,-149
6.410720,1048,3972,-107
6.411920,1131,4040,-9
6.413121,1416,4204,175
6.414321,1639,4291,131
6.415521,1627,4309,-72
6.416722,1553,4358,-213
6.417922,1401,4424,-373
6.419123,1231,4511,-401
6.420323,1156,4541,-387
6.421524,1005,4616,-324
6.422724,916,4670,-338
6.423925,914,4774,-310
6.425125,911,4851,-305
6.426326,955,4870,-241
6.427526,1000,4867,-210
6.428727,1026,4849,-470
6.429927,1043,4866,-281
6.431128,1048,4845,-123
6.472585,1054,4775,232
6.473786,1075,4731,-30
6.474986,1244,4802,1515
6.476187,1545,5168,4001
6.477387,1868,7455,4600
6.478588,1657,4297,4128
6.479788,1281,3215,2066
6.480989,1529,2512,1824
6.482189,1378,2847,2369
6.483390,1339,2874,2783
6.484590,1256,2695,2787
6.485791,1231,2290,2739
6.486991,1084,1808,2370
6.488192,991,1859,2203
6.489392,947,1872,2047
6.490593,879,2091,2012
6.491793,845,2238,1899
6.492994,798,2491,1906
6.494194,794,2733,1888
6.495394,844,2857,1740
6.472702,889,3065,1606
6.473902,929,3191,1583
6.475103,1027,3379,1546
6.476303,1152,3535,1559
6.477504,1187,3761,1660
6.478704,1206,3886,1704
6.479905,1225,3916,1817
6.481105,1262,3993,1934
6.482306,1255,4047,2004
6.483506,1282,4064,2107
6.484707,1258,4049,2198
6.485907,1277,3964,2281
6.487108,1265,3900,2295
6.488308,1286,3881,2261
6.489509,1306,3907,2144
6.490709,1358,3977,2081
6.491910,1376,4082,1901
6.493110,1360,4091,1883
6.494311,1319,4080,1792
6.495511,1284,4127,1698
6.507725,1217,4168,1585
6.508925,1124,4268,1401
6.510126,1090,4414,1322
6.511326,994,4565,1223
6.512527,919,4628,1169
6.513727,884,4684,1153
6.514928,909,4667,1097
6.516128,937,4640,1062
6.517329,970,4611,1113
6.518529,984,4484,1184
6.519729,1037,4339,1287
6.520930,1065,4281,1377
6.522130,1083,4159,1441
6.523331,1125,4003,1483
6.524531,1110,3887,1582
6.525732,1131,3681,1662
6.526932,1124,3481,1701
6.528133,1109,3154,1822
6.529333,1109,3227,1866
6.530534,1100,3099,1865
6.543557,1112,2962,1861
6.544757,1082,2909,1877
6.545958,1040,2795,1884
6.547158,1009,2784,1914
6.548359,1028,2817,1965
6.549559,1104,2918,1949
6.550760,1123,3003,1966
6.551960,1148,3035,2064
6.553161,1155,3042,2190
6.554361,1188,3051,2357
6.555562,1218,1796,4728
6.556762,-1585,-12458,32059
6.557963,2664,-8053,6871
6.559163,2904,3258,-4312
6.560363,1857,6050,-9151
6.561564,221,5966,-1998
6.562764,232,5667,1244
6.563965,522,5627,1099
6.565165,1008,5404,182
6.566366,1097,5334,-260
6.593689,1131,5017,-408
6.594889,1191,4769,-190
6.596090,1293,4667,-104
6.597290,1321,4585,-103
6.598491,1353,4632,-92
6.599691,1395,4644,54
6.600892,1554,4872,49
6.602092,1605,5088,-49
6.603293,1509,5094,-409
6.604493,1302,5022,-519
6.605694,1158,4905,-554
6.606894,1145,4933,-521
6.608094,1090,4902,-282
6.609295,1078,4899,-145
6.610495,1067,4807,143
6.611696,1066,4834,1920
6.612896,986,5165,3771
6.614097,952,4859,3591
6.615297,1208,3283,2575
6.616498,1525,2796,1892
6.630166,1588,2434,2256
6.631366,1598,2393,2567
6.632567,1557,2106,2920
6.633767,1489,2228,2734
6.634968,1440,2173,2515
6.636168,1340,2260,2223
6.637369,1219,2349,2074
6.638569,1132,2615,1953
6.639770,1095,2883,1937
6.640970,1040,3278,1883
6.642171,1059,3291,1885
6.643371,1067,3400,1847
6.644572,1092,3454,1920
6.645772,1158,3446,1990
6.646973,1214,3431,1957
6.648173,1250,3479,1947
6.649374,1300,3506,1966
6.650574,1328,3585,1998
6.651774,1340,3637,1981
6.652975,1333,3723,1950
6.680105,1327,3756,1904
6.681305,1316,3841,1913
6.682505,1314,3914,1914
6.683706,1305,3940,1853
6.684906,1267,3963,1836
6.686107,1231,3918,1837
6.687307,1172,3968,1750
6.688508,1131,3985,1742
6.689708,1109,4083,1659
6.690909,1079,4233,1558
6.692109,1024,4249,1515
6.693310,1007,4293,1437
6.694510,1023,4296,1407
6.695711,1024,4312,1408
6.696911,1026,4313,1444
6.698112,1025,4297,1467
6.699312,1020,4261,1442
6.700513,1034,4213,1413
6.701713,1027,4143,1430
6.702914,1008,4068,1494
6.735061,1019,4047,1531
6.736262,1025,3929,1565
6.737462,1033,3787,1597
6.738663,1054,3687,1742
6.739863,1062,3653,1824
6.741064,1087,3545,1881
6.742264,1082,3469,1890
6.743465,1096,3434,1924
6.744665,1116,3346,1998
6.745866,1122,3259,1988
6.747066,1167,3227,2038
6.748267,1218,3229,2087
6.749467,1228,3132,26070
6.750668,-1704,-13951,32727
6.751868,2668,-2264,9428
6.753069,3167,2911,-9361
6.754269,740,5868,-9464
6.755470,-106,5522,-1319
6.756670,53,5315,2072
6.757870,734,5199,1367
6.735183,869,4959,895
6.736383,979,4549,480
6.737584,1069,4271,609
6.738784,1129,4026,736
6.739985,1146,3911,645
6.741185,1069,3840,493
6.742386,1061,3698,540
6.743586,1161,3764,663
6.744787,1404,3819,584
6.745987,1555,3999,279
6.747187,1572,4136,97
6.748388,1539,4238,-310
6.749588,1470,4303,-599
6.750789,1374,4511,-730
6.751989,1320,4763,-740
6.753190,1207,4880,-746
6.754390,1087,5034,-703
6.755591,1052,5053,-755
6.756791,956,5035,-721
6.757992,916,5061,-665
6.778373,965,5147,-683
6.779574,988,5195,-713
6.780774,1044,5194,-678
6.781974,1079,5145,-662
6.783175,1087,5070,-571
6.784375,1114,4974,-375
6.785576,1166,4870,-151
6.786776,1156,4815,73
6.787977,1252,5169,1048
6.789177,1643,5856,3407
6.790378,2051,8657,4333
6.791578,1578,4488,3593
6.792779,1175,2167,2152
6.793979,1345,1781,2468
6.795180,1461,1838,2810
6.796380,1391,1604,3019
6.797581,1282,1487,2933
6.798781,1148,1355,2724
6.799982,1094,1473,2636
6.801182,932,1540,2515
6.816503,869,1847,2498
6.817703,852,2248,2524
6.818904,916,2766,2596
6.820104,910,3002,2616
6.821305,934,3321,2693
6.822505,971,3536,2640
6.823706,1056,3615,2565
6.824906,1140,3655,2490
6.826107,1161,3626,2458
6.827307,1238,3619,2375
6.828508,1294,3614,2264
6.829708,1327,3617,2201
6.830908,1339,3646,2032
6.832109,1300,3656,1979
6.833309,1284,3750,1919
6.834510,1294,3862,1901
6.835710,1283,3943,1852
6.836911,1285,3979,1799
6.838111,1271,4047,1764
6.839312,1198,4112,1676
6.867385,1161,4137,1619
6.868585,1110,4193,1518
6.869786,1097,4246,1488
6.870986,1027,4288,1437
6.872187,1009,4375,1370
6.873387,982,4453,1041
6.874588,978,4496,1243
6.875788,947,4490,1252
6.876989,984,4466,1251
6.878189,997,4412,1207
6.879390,1008,4112,1246
6.880590,1014,4267,1262
6.881791,1033,4177,1356
6.882991,1056,4047,1469
6.884191,1112,3974,1543
6.885392,1103,3727,1613
6.886592,1107,3506,1685
6.887793,1116,3138,1753
6.888993,1150,3199,1829
6.890194,1143,3055,1864
6.905457,1148,2921,1921
6.906657,1158,2881,1992
6.907858,1188,2840,2050
6.909058,1208,2864,2086
6.910259,704,-8339,19985
6.911459,1494,-7395,14020
6.912660,2684,147,5665
6.913860,2513,5061,-5885
6.915061,673,5435,-2111
6.916261,260,5093,2003
6.917462,446,4695,2375
6.918662,928,4556,1683
6.919863,1029,4270,917
6.921063,1093,3893,884
6.922264,1257,3667,1071
6.923464,1329,3658,925
6.924665,1228,3619,581
6.925865,1188,3663,796
6.927066,1226,3749,804
6.928266,1430,3997,708
6.961448,1477,4259,516
6.962648,1492,4433,118
6.963849,1452,4510,-191
6.965049,1444,4702,-306
6.966250,1382,4778,-347
6.967450,1230,4772,-245
6.968651,1032,4746,-185
6.969851,993,4801,-118
6.971052,997,4891,-117
6.972252,1090,5065,-171
6.973453,1123,5141,-165
6.974653,1149,5103,-70
6.975853,1194,5081,27
6.977054,1237,4993,62
6.978254,1266,4809,257
6.979455,1251,4421,680
6.980655,1328,4542,1148
6.981856,1337,4189,1555
6.983056,1192,2826,3900
6.984257,689,1886,4712
6.997313,1510,2634,3127
6.998513,1625,2882,2675
6.999714,1491,2911,2525
7.000914,1365,2954,3032
7.002115,1370,2834,3147
7.003315,1322,2504,3064
7.004516,1275,2386,2766
7.005716,1274,2294,2558
7.006917,1265,2352,2518
7.008117,1254,2381,2400
7.009318,1176,2422,2085
7.010518,1132,2553,1947
7.011719,1075,2792,1673
7.012919,1099,2920,1472
7.014119,1071,3191,1427
7.015320,1059,3485,1402
7.016520,1060,3648,1371
7.017721,1048,3900,1358
7.018921,1056,4018,1379
7.020122,1071,4084,1469
6.997455,1104,4104,1614
6.998656,1136,4152,1688
6.999856,1172,4132,1807
7.001057,1199,4107,1900
7.002257,1199,4108,1954
7.003458,1216,4091,1992
7.004658,1232,4082,2025
7.005859,1244,4074,2037
7.007059,1246,4047,2012
7.008260,1255,4096,2014
7.009460,1252,4146,1909
7.010661,1250,4265,1724
7.011861,1247,4265,1624
7.013062,1206,4239,1554
7.014262,1174,4198,1448
7.015463,1139,4192,1403
7.016663,1044,4250,1304
7.017863,980,4304,1227
7.019064,920,4365,1214
7.020264,929,4366,1236
7.035802,946,4276,1351
7.037003,1013,4231,1560
7.038203,1044,4129,1653
7.039404,1139,4010,1853
7.040604,1201,3957,1994
7.041805,1262,3795,2101
7.043005,1270,3618,2140
7.044206,1289,3515,2156
7.045406,1287,3265,2165
7.046607,1275,3053,2161
7.047807,1263,2932,2190
7.049008,1125,2356,22942
7.050208,364,-13429,23749
7.051409,2573,-2742,8620
7.052609,3289,2614,-8332
7.053810,967,6090,-4790
7.055010,151,5808,-1044
7.056211,74,5255,2395
7.057411,705,5076,1468
7.058612,846,4820,382
7.087585,887,4490,239
7.088785,1000,4249,503
7.089986,1182,4118,463
7.091186,1164,4123,170
7.092387,1174,3983,146
7.093587,1202,3961,215
7.094788,1325,4005,306
7.095988,1518,4134,346
7.097189,1567,4195,165
7.098389,1529,4271,-144
7.099590,1489,4355,-231
7.100790,1397,4445,-346
7.101991,1253,4593,-339
7.103191,1166,4778,-392
7.104392,1025,4946,-567
7.105592,952,5000,-574
7.106793,992,5118,-508
7.107993,1047,5167,-548
7.109193,1076,5179,-627
7.110394,1102,5125,-630
7.138927,1119,5047,-331
7.140127,1148,4907,46
7.141328,1233,4874,636
7.142528,1434,4912,2352
7.143729,1754,5931,3642
7.144929,2025,4498,4231
7.146129,1420,3209,2911
7.147330,1349,2341,2609
7.148530,1520,2509,2577
7.149731,1487,2584,2799
7.150931,1352,2438,2718
7.152132,1257,2224,2650
7.153332,1162,1866,2446
7.154533,1059,1922,2113
7.155733,997,1806,1979
7.156934,895,1994,1924
7.158134,877,2162,1915
7.159335,826,2534,1893
7.160535,819,2871,1884
7.161736,847,3051,1852
7.175671,903,3338,1853
7.176871,962,3523,1886
7.178072,1036,3653,1957
7.179272,1169,3715,2012
7.180473,1193,3849,2018
7.181673,1287,3913,2041
7.182874,1322,3907,2122
7.184074,1342,3910,2197
7.185275,1356,3853,2223
7.186475,1366,3817,2286
7.187676,1369,3814,2301
7.188876,1366,3854,2262
7.190076,1382,3949,2182
7.191277,1371,3977,2069
7.192477,1316,4003,2032
7.193678,1286,4029,2024
7.194878,1242,4328,1941
7.196079,1159,4152,1836
7.197279,1149,4190,1768
7.198480,1114,4216,1579
7.229218,1087,4237,1519
7.230418,1042,4150,1480
7.231619,1032,4100,1508
7.232819,1034,4088,1462
7.234019,1005,4064,1492
7.235220,1002,3987,1466
7.236420,998,3964,1458
7.237621,1006,3955,1534
7.238821,1022,3979,1548
7.240022,1044,4003,1573
7.241222,1079,4003,1616
7.242423,1116,4011,1677
7.243623,1128,3916,1754
7.244824,1194,3776,1781
7.246024,1219,3711,1862
7.247225,1237,3565,1902
7.248425,1246,3412,1917
7.249626,1230,3348,1966
7.250826,1223,3247,1981
7.252027,1210,3154,1981
7.264821,1218,3093,1959
7.266021,1218,3086,1943
7.267222,1227,3096,1934
7.268422,1226,-1430,12889
7.269623,48,-5501,20930
7.270823,2251,-4843,3111
7.272024,2799,2404,-4970
7.273224,1465,5553,-5250
7.274425,453,5934,-93
7.275625,647,5942,951
7.276826,826,5691,600
7.278026,985,5380,-353
7.279227,1088,4771,-457
7.280427,1162,4408,-362
7.281628,1256,4607,-226
7.282828,1252,4401,-219
7.284029,1214,4468,-234
7.285229,1173,4444,-107
7.286430,1291,4448,192
7.287630,1452,4489,192
7.353041,1484,4494,120
7.354241,1420,4499,-176
7.355442,1332,4565,-335
7.356642,1034,4639,-328
7.357843,1221,4575,-103
7.359043,1176,4512,93
7.360244,1219,4127,973
7.361444,1240,2697,1694
7.362644,1429,1661,2927
7.363845,1486,1944,4210
7.365045,1492,3612,3923
7.366246,1402,4048,2959
7.367446,1270,4102,2418
7.368647,1258,4121,2468
7.369847,1247,4029,2540
7.371048,1255,3655,2561
7.372248,1272,3604,2353
7.373449,1290,3337,2265
7.374649,1325,3101,2081
7.375850,1292,2942,1927
7.353160,1242,2621,1911
7.354360,1202,2413,1872
7.355561,1192,2419,1781
7.356761,1161,2600,1665
7.357962,1150,2911,1603
7.359162,1095,3221,1555
7.360363,1093,3372,1520
7.361563,1124,3636,1536
7.362764,1166,3799,1629
7.363964,1149,3834,1761
7.365165,1170,3863,1940
7.366365,1184,3950,1984
7.367566,1220,3951,2014
7.368766,1231,3931,2097
7.369967,1255,3849,2110
7.371167,1261,3793,2093
7.372367,1269,3747,2035
7.373568,1264,3691,2053
7.374768,1259,3684,2063
7.375969,1246,3694,2035
7.375387,1220,3669,1911
7.376588,1220,3605,1878
7.377788,1232,3584,1787
7.378989,1197,3610,1687
7.380189,1138,3795,1566
7.381390,1124,3987,1447
7.382590,1119,4029,1281
7.383791,1089,4045,1293
7.384991,1066,4080,1338
7.386192,1083,4119,1393
7.387392,1100,4153,1403
7.388593,1130,4149,1452
7.389793,1131,4141,1540
7.390994,1169,4137,1709
7.392194,1186,4124,1855
7.393395,1213,4086,1893
7.394595,1250,4030,1985
7.395796,1297,3975,2056
7.396996,1315,3842,2096
7.398196,1330,3735,2107
7.421047,1172,3372,1942
7.422248,1175,3349,1924
7.423448,1144,3343,1915
7.424649,1168,3352,1887
7.425849,1143,3356,1884
7.427050,1134,3344,1913
7.428250,1136,3341,1923
7.429451,1036,414,18974
7.430651,1000,-8253,18926
7.431852,2334,-3331,6972
7.433052,2935,1128,-5762
7.434253,962,5273,-1819
7.435453,361,5380,244
7.436654,408,5036,1643
7.437854,831,4812,1071
7.439055,894,4331,26
7.440255,909,3938,-57
7.441456,1047,3796,-123
7.442656,1230,3779,-175
7.443857,1240,4011,-322
7.458574,1153,4110,-384
7.459774,1160,4399,-291
7.460974,1482,4663,-187
7.462175,1439,4794,-184
7.463375,1512,4832,-307
7.464576,1496,4855,-503
7.465776,1454,4884,-598
7.466977,1241,4874,-662
7.468177,1118,4929,-628
7.469378,1106,5080,-680
7.470578,1087,5131,-666
7.471779,1089,5121,-709
7.472979,1119,5074,-519
7.474180,1139,5054,-388
7.475380,1183,5064,50
7.476581,1231,4981,963
7.477781,1225,4767,1127
7.478982,1271,5461,1778
7.480182,1197,6020,3771
7.481383,1157,4582,3108
7.493846,1244,3192,2645
7.495046,1366,2940,2348
7.496247,1393,2858,2639
7.497447,1365,2696,2772
7.498648,1377,2381,2832
7.499848,1307,2202,2776
7.501048,1258,1969,2699
7.502249,1265,1953,2607
7.503449,1268,1991,2407
7.504650,1212,2150,2287
7.505850,1178,2417,2219
7.507051,1113,2816,2036
7.508251,1091,3031,1876
7.509452,1076,3399,1776
7.510652,1028,3626,1679
7.511853,1039,3713,1689
7.513053,1105,3871,1752
7.514254,1119,3943,1780
7.515454,1180,3960,1813
7.516655,1204,3888,1863
7.531618,1228,3809,1909
7.532818,1278,3740,2005
7.534019,1285,3706,2100
7.535219,1290,3605,2130
7.536420,1300,3616,2134
7.537620,1293,3647,2132
7.538821,1322,3731,2066
7.540021,1319,3751,2020
7.541222,1307,3795,1937
7.542422,1275,3848,1849
7.543623,1233,3926,1781
7.544823,1227,3921,1684
7.546024,1180,3914,1554
7.547224,1118,3923,1463
7.548425,1096,4130,1389
7.549625,1036,4306,1242
7.550826,1010,4335,1166
7.552026,1027,4321,1302
7.553227,1048,4266,1393
7.554427,1103,4257,1577
7.583000,1161,4205,1733
7.584201,1196,4167,1810
7.585401,1251,4099,1981
7.586602,1287,4079,2097
7.587802,1321,4007,2136
7.589002,1362,3894,2118
7.590203,1357,3794,2077
7.591403,1359,3606,2120
7.592604,1344,3453,2087
7.593804,1323,2894,2384
7.595005,-280,-3705,26156
7.596205,1566,-10317,12860
7.597406,2713,-6,523
7.598606,2520,4090,-5752
7.599807,413,5873,-162
7.601007,60,5090,1521
7.602208,551,4357,2506
7.603408,948,4173,1742
7.604609,902,3501,1105
7.605809,862,3290,878
7.633368,1101,3405,473
7.634568,1120,3515,260
7.635769,1082,3567,178
7.636969,971,3601,-40
7.638170,1024,3743,-118
7.639370,1095,3922,-212
7.640571,1309,4127,-275
7.641771,1517,4251,-455
7.642972,1603,4373,-593
7.644172,1617,4485,-697
7.645373,1501,4793,-779
7.646573,1412,4710,-643
7.647774,1374,4938,-584
7.648974,1293,5060,-429
7.650175,1099,5061,-430
7.651375,1008,4998,-408
7.652576,1027,5055,-453
7.653776,1103,5371,-507
7.654977,1174,5126,-511
7.656177,1183,5094,-509
7.685318,1224,4993,-511
7.686519,1235,4943,-461
7.687719,1221,4867,-379
7.688920,1223,4823,-177
7.690120,1219,4794,-2
7.691321,1202,4776,239
7.692521,1212,4677,313
7.693722,1179,4445,753
7.694922,1200,4343,1457
7.696123,1254,4133,2207
7.697323,1318,4586,2616
7.698524,1847,5429,4611
7.699724,1495,3897,4245
7.700925,1435,2428,3584
7.702125,1412,2208,3106
7.703326,1439,2238,3238
7.704526,1444,2232,3258
7.705727,1382,1920,3158
7.706927,1355,1704,2957
7.708128,1247,1407,2840
7.685439,1163,1448,2749
7.686640,1074,1555,2345
7.687840,992,1971,2094
7.689041,972,2412,1683
7.690241,916,2831,1709
7.691442,846,3036,1653
7.692642,859,3450,1654
7.693843,914,3813,1611
7.695043,1072,4216,1621
7.696244,1204,4195,1673
7.697444,1233,4143,1811
7.698645,1255,4027,1954
7.699845,1328,3996,2027
7.701046,1368,3972,2069
7.702246,1394,3947,2103
7.703447,1404,3941,2092
7.704647,1354,3847,2102
7.705848,1343,3726,2101
7.707048,1312,3678,2028
7.708249,1282,3665,1952
7.727945,1253,3751,1847
7.729146,1245,3879,1736
7.730346,1223,3935,1554
7.731547,1162,4022,1464
7.732747,1133,4074,1438
7.733948,1119,4142,1434
7.735148,1119,4132,1457
7.736349,1135,4116,1485
7.737549,1169,4053,1516
7.738750,1230,4032,1588
7.739950,1247,3939,1658
7.741151,1255,3872,1707
7.742351,1272,3805,1773
7.743552,1277,3793,1792
7.744752,1280,3728,1808
7.745952,1288,3658,1834
7.747153,1284,3608,1894
7.748353,1294,3514,1918
7.749554,1291,3423,1954
7.750754,1281,-217,9268
7.764397,798,-2928,16368
7.765598,1918,-3615,5428
7.766798,2500,1449,-828
7.767999,1653,3331,-2391
7.769199,712,4714,1274
7.770400,605,4693,2195
7.771600,928,4602,2407
7.772801,1023,4068,1739
7.774001,1028,3467,1506
7.775202,1079,3254,1175
7.776402,1238,3447,1033
7.777603,1202,3559,963
7.778803,1156,3680,884
7.780004,1070,4066,727
7.781204,1194,4070,677
7.782405,1287,4315,600
7.783605,1459,4500,461
7.784806,1591,4616,196
7.786006,1618,4738,45
7.787206,1611,4760,-47
7.817422,1639,4819,-87
7.818623,1579,4859,7
7.819823,1540,4896,44
7.821024,1313,4770,22
7.822224,1145,4659,248
7.823425,1150,4636,295
7.824625,1180,4678,372
7.825826,1225,4616,400
7.827026,1288,4511,505
7.828227,1311,4483,572
7.829427,1382,4435,780
7.830628,1385,4361,834
7.831828,1378,4290,856
7.833029,1381,4256,1043
7.834229,1370,4284,1332
7.835430,1476,4646,1585
7.836630,1615,5797,1780
7.837831,2031,6826,2353
7.839031,1809,5556,2585
7.840232,1614,3331,2352
7.868701,1643,2369,2495
7.869902,1718,2287,2818
7.871102,1596,2316,3015
7.872302,1542,2777,3028
7.873503,1041,1172,3897
7.874703,-777,2456,1526
7.875904,-606,2316,1109
7.877104,357,2801,1143
7.878305,1212,2788,1085
7.879505,1521,2811,1876
7.880706,1519,2824,2049
7.881906,1614,2887,1781
7.883107,1590,2820,1161
7.884307,1580,2799,1031
7.885508,1627,2889,1264
7.886708,1685,2935,1674
7.887909,1606,3003,1943
7.889109,1556,3101,1962
7.890310,1512,3199,1892
7.891510,1499,3328,1861
7.906557,1447,3430,1855
7.907758,1401,3580,1922
7.908958,1370,3687,1931
7.910159,1396,3916,2032
7.911359,1393,4181,2073
7.912560,1368,4227,2195
7.913760,1359,4327,2302
7.914961,1347,4374,2320
7.916161,1376,4397,2364
7.917362,1393,4398,2409
7.918562,1383,4379,2435
7.919763,1385,4340,2445
7.920963,1391,4314,2434
7.922164,1409,4287,2368
7.923364,1419,4223,2323
7.924565,1464,4158,2194
7.925765,1457,4099,2115
7.926966,1385,3974,1799
7.928166,1364,3875,1850
7.929366,1273,3823,2171
7.943262,1369,3867,2061
7.944463,1395,3352,4272
7.945663,1049,2019,7335
7.946864,1550,1774,6084
7.948064,2093,1949,2746
7.949265,2149,3053,1559
7.950465,1706,3571,973
7.951666,1190,4419,1768
7.952866,1085,4853,2072
7.954067,1044,4614,2085
7.955267,1175,4496,1905
7.956468,1518,3966,1781
7.957668,1461,3603,1536
7.958869,1543,3404,1039
7.960069,46,2832,-3124
7.961270,-299,1483,-4691
7.962470,2140,879,-2170
7.963671,2763,1622,-535
7.964871,1789,3240,-670
7.966071,1277,3834,67
7.994531,826,3765,1033
7.995732,739,3658,1183
7.996932,834,3880,1145
7.998133,1306,4287,1163
7.999333,1736,4185,1207
8.000534,1839,4086,1028
8.001734,1729,3964,634
8.002935,1521,3966,591
8.004135,1497,4089,784
8.005336,1558,4234,831
8.006536,1714,4240,710
8.007737,1777,4281,376
8.008937,1707,4179,265
8.010138,1538,4100,239
8.011338,1432,4082,308
8.012539,1365,4009,350
8.013739,1346,3950,442
8.014939,1323,3913,583
8.016140,1331,3825,788
8.017340,1377,3648,915
7.994641,1335,3049,1229
7.995842,742,2439,1429
7.997042,909,2695,1948
7.998243,1177,3084,2170
7.999443,1630,3252,2588
8.000644,2708,3138,2364
8.001844,2353,2317,2494
8.003045,1859,2616,2947
8.004245,1947,2863,3219
8.005446,1973,3009,2905
8.006646,1885,2846,2919
8.007847,1784,2841,2801
8.009047,1672,2946,2776
8.010248,1630,3087,2722
8.011448,1503,3084,2613
8.012649,1394,3178,2280
8.013849,1379,3359,2136
8.015050,1337,3281,1832
8.016250,1278,3258,1698
8.017450,1220,3144,1452
8.035320,1247,3157,1447
8.036520,1266,3148,1325
8.037721,1283,3199,1301
8.038921,1268,3194,1284
8.040122,1274,3226,1308
8.041322,1322,3242,1249
8.042523,1376,3233,1313
8.043723,1397,3177,1310
8.044924,1424,3182,1340
8.046124,1441,3216,1322
8.047325,1419,3283,1349
8.048525,1434,3500,1456
8.049726,1429,3645,1505
8.050926,1435,3853,1784
8.052127,1437,4038,1589
8.053327,1405,4132,1638
8.054528,1384,4319,1688
8.055728,1391,4350,1702
8.056929,1406,4248,1740
8.058129,1444,4125,1719
8.079121,1520,3874,2013
8.080322,1523,3765,1847
8.081522,1555,3766,1841
8.082723,1587,3728,1775
8.083923,1596,3652,1760
8.085124,1644,3639,1765
8.086324,1683,3673,1773
8.087525,1678,3722,1768
8.088725,1674,3752,1721
8.089926,1605,3751,1726
8.091126,1550,3773,1731
8.092327,1518,3849,1699
8.093527,1503,3909,1643
8.094728,1480,3977,1588
8.095928,1467,3983,1588
8.097129,1478,3945,1641
8.098329,1507,3905,1732
8.099529,1537,3821,1824
8.100730,1529,3743,1872
8.101930,1545,3695,1932
8.117795,1556,3643,2020
8.118996,1554,3552,2061
8.120196,1583,3458,2129
8.121397,1594,3427,2218
8.122597,1615,3312,2251
8.123798,1616,3205,2287
8.124998,1632,3137,2280
8.126199,1635,3013,2481
8.127399,1630,-2106,12783
8.128600,1333,-5882,20240
8.129800,3234,-4206,-860
8.131001,3355,2318,-7657
8.132201,2473,4906,-4998
8.133401,970,5010,290
8.134602,643,5289,1333
8.135802,684,5536,1103
8.137003,800,5339,755
8.138203,1179,5174,259
8.139404,1397,4733,401
8.140604,1255,5805,462
8.178169,1012,6115,-111
8.179369,1371,4968,-601
8.180569,1588,3952,-326
8.181770,1590,4249,139
8.182970,1585,4364,806
8.184171,1535,4600,896
8.185371,1421,4882,836
8.186572,1214,5142,722
8.187772,892,5687,1586
8.188973,1081,4734,1813
8.190173,1498,3722,1574
8.191374,1726,3089,1280
8.192574,1794,2379,1257
8.193775,1827,1773,1411
8.194975,1828,1690,1871
8.196176,1785,1560,1968
8.197376,1745,1671,1931
8.198577,1706,2008,1739
8.199777,1712,2167,1481
8.200978,1678,2499,1219
8.216456,1622,2552,1059
8.217656,1581,2735,1012
8.218857,1563,3124,1139
8.220057,1568,3420,1230
8.221258,1513,3749,1234
8.222458,1536,3628,1307
8.223659,1556,3653,1259
8.224859,1546,3658,1159
8.226060,1550,3635,1110
8.227260,1504,3599,1070
8.228461,1470,3541,1092
8.229661,1436,3550,1129
8.230861,1432,3608,1154
8.232062,1422,3671,1154
8.233262,1420,3738,1231
8.234463,1393,3763,1304
8.235663,1411,3835,1341
8.236864,1423,3887,1454
8.238064,1461,3925,1617
8.239265,1496,3983,1829
8.255800,1507,4068,1942
8.257001,1522,4149,2173
8.258201,1541,4202,2356
8.259402,1566,4248,2429
8.260602,1584,4305,2563
8.261803,1608,4336,2634
8.263003,1614,4385,2633
8.264204,1628,4439,2600
8.265404,1615,4456,2481
8.266605,1606,4463,2298
8.267805,1585,4495,2199
8.269006,1578,4508,2011
8.270206,1556,4498,1872
8.271407,1551,4460,1781
8.272607,1552,4405,1737
8.273807,1443,3624,918
8.275008,1333,3654,145
8.276208,1409,3373,21
8.277409,1603,3271,429
8.278609,1759,3340,1161
8.255930,1712,3480,1510
8.257131,1681,3568,1441
8.258331,1580,3617,1276
8.259531,1441,3623,1519
8.260732,1378,3680,1638
8.261932,1367,3733,1916
8.263133,1393,3700,1966
8.264333,1411,3567,1946
8.265534,1448,3391,1928
8.266734,1504,3320,1867
8.267935,1032,-411,21727
8.269135,751,-5515,24424
8.270336,2926,-1129,1001
8.271536,3537,1675,-8776
8.272737,1885,3353,-2959
8.273937,1287,4255,-722
8.275138,729,5353,734
8.276338,727,5552,718
8.277539,824,5541,490
8.278739,1133,4967,20
8.310411,1461,4582,-339
8.311612,1598,3944,-408
8.312812,1614,3946,-338
8.314013,1601,4024,-13
8.315213,1523,4037,422
8.316414,1522,4115,617
8.317614,1621,4124,728
8.318815,1645,4083,590
8.320015,1585,4023,507
8.321216,1566,4083,328
8.322416,1601,4133,224
8.323617,1605,4213,254
8.324817,1581,4204,188
8.326018,1515,4098,325
8.327218,1466,3968,909
8.328419,1110,3211,1506
8.329619,950,3125,2205
8.330819,1595,3548,2903
8.332020,1805,3695,2812
8.333220,1789,3306,2627
8.361874,1766,2901,2453
8.363074,1775,2938,2445
8.364275,1772,2620,2407
8.365475,1739,2069,2414
8.366676,1812,2134,2481
8.367876,1880,2384,2403
8.369077,1883,2664,2285
8.370277,1772,3045,1933
8.371478,1653,3036,1643
8.372678,1609,3322,1532
8.373879,1585,3553,1455
8.375079,1518,3637,1486
8.376279,1469,3732,1522
8.377480,1448,3795,1512
8.378680,1450,3804,1548
8.379881,1491,3838,1639
8.381081,1491,3829,1688
8.382282,1523,3840,1786
8.383482,1562,3839,1805
8.384683,1581,3833,1808
8.399910,1591,3829,1799
8.401111,1577,3830,1799
8.402311,1559,3874,1817
8.403512,1562,3940,1845
8.404712,1552,4005,1892
8.405913,1548,4033,1840
8.407113,1408,3787,1526
8.408314,1423,3764,1222
8.409514,1420,3658,1012
8.410715,1474,3528,1238
8.411915,1532,3530,1266
8.413116,1659,3615,1471
8.414316,1660,3713,1510
8.415516,1626,3908,1496
8.416717,1527,4081,1421
8.417917,1486,4142,1404
8.419118,1462,4210,1484
8.420318,1461,4194,1576
8.421519,1514,3892,1751
8.422719,1581,4022,1852
8.438205,1610,3843,1868
8.439406,1651,3654,1891
8.440606,1669,3580,1910
8.441807,1675,3433,1878
8.443007,1677,3325,1852
8.444207,1658,3305,1798
8.445408,1592,3230,1719
8.446608,1295,3174,1720
8.447809,1492,3151,1689
8.449009,1437,3140,1685
8.450210,1415,3118,4919
8.451410,1424,-1063,10479
8.452611,1363,-3098,13260
8.453811,2783,-2290,1244
8.455012,3124,2056,-3062
8.456212,2155,3876,-2475
8.457413,1176,4262,720
8.458613,997,4839,1380
8.459814,1065,5067,1204
8.461014,1251,4742,663
8.490298,1466,4525,336
8.491498,1552,3816,231
8.492699,1644,3485,59
8.493899,1569,3541,-48
8.495099,1425,3799,216
8.496300,1380,4068,89
8.497500,1366,4126,277
8.498701,1442,4174,446
8.499901,1477,4191,410
8.501102,1511,4130,300
8.502302,1529,4131,219
8.503503,1583,4129,259
8.504703,1629,4221,409
8.505904,1636,4296,543
8.507104,1626,4659,981
8.508305,1670,5777,1041
8.509505,1519,5566,1816
8.510706,1262,4469,2464
8.511906,1353,3294,2268
8.513107,1518,2932,2196
8.547208,1700,2867,2113
8.548408,1696,2708,2163
8.549608,1623,2110,2168
8.550809,1661,1564,2296
8.552009,1810,1744,2186
8.553210,1825,1817,2124
8.554410,1802,2139,1998
8.555611,1761,2341,1818
8.556811,1671,2762,1573
8.558012,1618,3173,1388
8.559212,1491,3337,1167
8.560413,1427,3678,1147
8.561613,1424,3940,1186
8.562814,1411,4091,1329
8.564014,1432,4135,1390
8.565215,1442,4197,1384
8.566415,1461,4228,1406
8.567616,1491,4203,1461
8.568816,1540,4149,1607
8.570017,1558,4096,1679
8.585264,1571,4021,1819
8.586465,1599,3983,1803
8.587665,1596,3806,1775
8.588866,1604,3807,1802
8.590066,1601,3826,1744
8.591267,1579,3828,1664
8.592467,1565,3743,1682
8.593668,1568,3755,1712
8.594868,1595,3810,1818
8.596069,1608,3889,1806
8.597269,1614,3943,1862
8.598470,1599,4015,1914
8.599670,1573,4141,1891
8.600871,1586,4098,1878
8.602071,1550,4038,1764
8.603272,1567,4061,1763
8.604472,1583,4119,1745
8.605673,1579,4082,1761
8.606873,1602,4042,1670
8.608074,1595,3924,1637
8.585395,1598,3800,1633
8.586596,1606,3729,1671
8.587796,1643,3579,1697
8.588997,1652,3489,1694
8.590197,1653,3407,1716
8.591398,1591,3364,1803
8.592598,1504,3271,1797
8.593799,1476,3197,1777
8.594999,1433,3164,1695
8.596200,1407,3121,1650
8.597400,1426,3134,1648
8.598601,1417,3142,1646
8.599801,1480,3160,1954
8.601001,881,351,13254
8.602202,1353,-2215,13383
8.603402,2385,-990,3707
8.604603,2787,1052,-3581
8.605803,2195,3300,-2946
8.607004,1400,4441,220
8.608204,1053,4731,1142
8.621028,1177,5323,856
8.622228,1209,5080,647
8.623429,1382,4532,397
8.624629,1507,4226,237
8.625830,1547,3938,151
8.627030,1503,3990,16
8.628231,1396,4031,71
8.629431,1385,4202,401
8.630632,1420,4259,514
8.631832,1511,4267,735
8.633033,1589,4250,660
8.634233,1628,4228,587
8.635434,1634,4158,599
8.636634,1660,4157,594
8.637835,1645,4186,930
8.639035,1644,4488,1042
8.640235,1608,4759,996
8.641436,1508,5252,1174
8.642636,1421,4739,2153
8.643837,1405,3565,2370
8.658122,1535,3180,2257
8.659322,1578,2736,2192
8.660523,1680,2361,2143
8.661723,1808,2218,2325
8.662923,1847,1992,2488
8.664124,1818,1972,2510
8.665324,1755,2058,2347
8.666525,1726,2279,2064
8.667725,1729,2669,1844
8.668926,1669,2984,1545
8.670126,1583,3131,1349
8.671327,1485,3390,1305
8.672527,1476,3672,1269
8.673728,1440,3785,1264
8.674928,1428,3808,1410
8.676129,1453,4047,1477
8.677329,1504,4246,1540
8.678530,1546,4209,1611
8.679730,1540,4122,1636
8.680931,1571,4077,1637
8.708498,1621,4005,1683
8.709698,1622,3831,1691
8.710899,1624,3606,1656
8.712099,1651,3471,1693
8.713300,1668,3418,1728
8.714500,1707,3329,1713
8.715701,1699,3286,1697
8.716901,1705,3303,1641
8.718102,1648,3400,1606
8.719302,1594,3577,1582
8.720502,1508,3727,1508
8.721703,1417,3776,1523
8.722903,1356,3859,1765
8.724104,1342,3876,1549
8.725304,1335,3874,1567
8.726505,1374,3825,1538
8.727705,1384,3849,1523
8.728906,1447,3875,1486
8.730106,1509,3911,1442
8.731307,1530,3928,1424
8.758388,1523,3894,1369
8.759588,1517,3875,1326
8.760789,1531,3842,1298
8.761989,1540,3825,1307
8.763190,1525,3815,1320
8.764390,1535,3814,1352
8.765591,1289,3770,1379
8.766791,1543,3697,1406
8.767992,1557,3663,1464
8.769192,1569,3596,1549
8.770393,1561,3550,1580
8.771593,1580,3524,1633
8.772794,1590,3484,1680
8.773994,1577,3424,1702
8.775195,1596,3343,1751
8.776395,1606,3319,1807
8.777596,1570,3294,1829
8.778796,1590,3326,1845
8.779997,1581,3335,1834
8.781197,1567,3038,8691
8.793884,815,-1654,13810
8.795084,1814,-2313,10231
8.796285,2920,-413,-1384
8.797485,2052,2726,-1808
8.798686,1474,3603,259
8.799886,1059,4488,2316
8.801087,1255,4785,2290
8.802287,1321,4608,1984
8.803488,1436,3910,1391
8.804688,1585,3564,1084
8.805889,1705,3398,963
8.807089,1664,3445,755
8.808290,1500,3572,472
8.809490,1486,4019,205
8.810691,1517,4250,296
8.811891,1683,4375,466
8.813092,1757,4396,477
8.814292,1745,4425,408
8.815493,1686,4438,306
8.816693,1601,4466,282
8.844635,1501,4375,307
8.845836,1467,4356,308
8.847036,1458,4453,262
8.848237,1449,4477,259
8.849437,1458,4512,240
8.850638,1501,4495,260
8.851838,1547,4440,287
8.853039,1548,4373,344
8.854239,1552,4259,333
8.855439,1526,4234,583
8.856640,1525,4087,1060
8.857840,1293,3955,1094
8.859041,1535,3798,1350
8.860241,1560,3775,1863
8.861442,1428,3646,2118
8.862642,1267,3230,3020
8.863843,1578,2821,2798
8.865043,1697,2833,2352
8.866244,1694,2676,2216
8.867444,1709,2691,2227
8.844752,1702,2754,2378
8.845952,1624,2824,2470
8.847153,1606,2877,2445
8.848353,1579,2887,2311
8.849554,1589,2873,2091
8.850754,1630,2752,1999
8.851955,1608,2654,1906
8.853155,1582,2642,1828
8.854356,1559,2808,1688
8.855556,1537,3068,1608
8.856757,1511,3471,1467
8.857957,1477,3462,1372
8.859157,1471,3638,1331
8.860358,1476,3783,1325
8.861558,1485,3851,1349
8.862759,1491,3941,1363
8.863959,1500,4001,1380
8.865160,1515,4023,1366
8.866360,1521,4037,1369
8.867561,1525,4039,1403
8.886461,1554,4009,1456
8.887661,1558,3991,1531
8.888862,1591,3903,1558
8.890062,1615,3704,1565
8.891263,1626,3563,1613
8.892463,1628,3293,1689
8.893664,1629,3243,1719
8.894864,1592,3387,1713
8.896065,1556,3495,1656
8.897265,1288,3692,1610
8.898466,1508,3828,1527
8.899666,1508,3861,1522
8.900867,1508,3900,1526
8.902067,1525,3941,1524
8.903268,1536,3958,1537
8.904468,1539,4024,1471
8.905668,1534,4089,1420
8.906869,1530,4131,1352
8.908069,1517,4120,1340
8.909270,1532,4081,1413
8.986455,1528,4023,1441
8.987655,1556,3983,1521
8.988856,1564,3868,1566
8.990056,1577,3759,1594
8.991257,1578,3660,1625
8.992457,1567,3605,1663
8.993658,1537,3518,1669
8.994858,1525,3449,1653
8.996059,1532,3414,1661
8.997259,1538,3315,1670
8.998460,1520,3251,1682
8.999660,1534,3214,1764
9.000861,1522,3143,7794
9.002061,1103,-1832,14500
9.003261,1619,-3004,11551
9.004462,3124,-948,-896
9.005662,2251,2364,-2177
9.006863,1483,3617,-186
9.008063,844,4550,2217
9.009264,1137,4820,2359
8.986568,1350,4775,1760
8.987769,1415,4024,1346
8.988969,1593,3548,1097
8.990170,1692,3034,1016
8.991370,1741,3034,987
8.992571,1619,3336,818
8.993771,1463,3522,862
8.994972,1533,3860,1245
8.996172,1657,4092,1136
8.997373,1766,4118,954
8.998573,1797,4152,596
8.999774,1768,4241,470
9.000974,1767,4319,370
9.002175,1736,4376,381
9.003375,1694,4445,53
9.004576,1549,4465,204
9.005776,1426,4449,249
9.006977,1444,4519,287
9.008177,1450,4528,317
9.009377,1456,4491,339
9.028776,1437,4350,385
9.029976,1443,4250,431
9.031177,1459,4216,633
9.032377,1530,4214,864
9.033578,1588,4158,1049
9.034778,1621,4131,963
9.035978,1637,4058,1139
9.037179,1658,3927,1571
9.038379,1700,3974,1698
9.039580,1554,4109,2147
9.040780,1273,3522,2527
9.041981,1447,2566,1841
9.043181,1621,2425,1913
9.044382,1798,2395,2286
9.045582,1802,2454,2583
9.046783,1780,2555,2696
9.047983,1699,2610,2550
9.049184,1636,2648,2277
9.050384,1615,2758,2071
9.051585,1590,2885,2035
9.065448,1579,2948,1980
9.066648,1586,3042,1888
9.067849,1586,3144,1818
9.069049,1544,3272,1663
9.070250,1522,3327,1552
9.071450,1495,3415,1514
9.072651,1513,3463,1422
9.073851,1501,3484,1403
9.075052,1494,3538,1370
9.076252,1501,3596,1359
9.077453,1492,3657,1356
9.078653,1503,3669,1396
9.079853,1528,3671,1377
9.081054,1541,3635,1347
9.082254,1603,3590,1284
9.083455,1646,3448,1359
9.084655,1619,3485,1454
9.085856,1576,3579,1622
9.087056,1522,3596,1721
9.088257,1780,3713,1988
9.116067,1507,3760,1848
9.117267,1474,3808,1962
9.118468,1501,3882,1947
9.119668,1523,3876,1940
9.120869,1465,3943,1910
9.122069,1456,4118,1828
9.123270,1501,4173,1775
9.124470,1515,4123,1606
9.125671,1490,4081,1506
9.126871,1483,4004,1477
9.128072,1485,3949,1448
9.129272,1474,3926,1385
9.130473,1485,3906,1341
9.131673,1473,3896,1322
9.132874,1475,3883,1330
9.134074,1484,3896,1352
9.135275,1477,3886,1458
9.136475,1493,3891,1503
9.137676,1528,3911,1629
9.138876,1562,3905,1731
9.160386,1580,3861,1782
9.161587,1612,3784,1901
9.162787,1646,3715,2002
9.163988,1647,3575,2061
9.165188,1642,3385,2062
9.166389,1630,3283,2011
9.167589,1639,3107,1990
9.168790,1599,3003,1984
9.169990,1582,1286,6926
9.171191,610,-2144,16586
9.172391,2159,-4235,7381
9.173592,3063,316,399
9.174792,2561,2487,-1699
9.175993,1019,3999,1161
9.177193,758,4627,1694
9.178394,1083,4822,2481
9.179594,1440,4679,1851
9.180795,1543,4094,794
9.181995,1729,3610,726
9.183196,1871,3480,733
9.160538,1759,3503,818
9.161738,1661,3671,723
9.162939,1426,4040,453
9.164139,1499,4016,292
9.165340,1636,4205,252
9.166540,1903,4328,31
9.167741,1884,4344,-183
9.168941,1773,4475,-153
9.170142,1648,4531,-162
9.171342,1465,4537,-64
9.172543,1403,4657,-141
9.173743,1440,4844,-187
9.174944,1460,4915,-246
9.176144,1509,4933,-251
9.177344,1562,4863,-249
9.178545,1583,4722,-200
9.179745,1621,4665,-30
9.180946,1622,4549,256
9.182146,1629,4389,371
9.183347,1613,4114,773
9.199696,1633,3988,1053
9.200896,1647,3795,1418
9.202097,1639,3291,1823
9.203297,1365,940,2628
9.204498,1023,598,3214
9.205698,1462,2883,3622
9.206899,1717,3269,3686
9.208099,1613,3008,3090
9.209300,1557,2775,2845
9.210500,1602,2879,2887
9.211701,1644,2894,2825
9.212901,1669,2802,2616
9.214102,1716,2745,2517
9.215302,1787,2839,2310
9.216503,1785,2888,2087
9.217703,1668,2931,1958
9.218904,1639,3039,1684
9.220104,1619,3098,1486
9.221304,1586,3221,1444
9.222505,1565,3284,1412
9.252483,1514,3429,1324
9.253683,1456,3516,1194
9.254884,1452,3716,1177
9.256084,1403,3831,1279
9.257285,1410,3869,1391
9.258485,1406,3887,1407
9.259686,1423,3864,1478
9.260886,1458,3593,1625
9.262087,1481,3770,1726
9.263287,1507,3721,1803
9.264488,1546,3660,1917
9.265688,1560,3633,1953
9.266889,1566,3565,1985
9.268089,1573,3523,1965
9.269290,1567,3499,1956
9.270490,1563,3447,1901
9.271691,1558,3417,1849
9.272891,1560,3370,1750
9.274092,1534,3380,1661
9.275292,1487,3445,1542
9.292046,1468,3614,1491
9.293246,1425,3719,1392
9.294447,1402,3902,1332
9.295647,1422,4032,1305
9.296847,1444,4107,1308
9.298048,1481,4096,1336
9.299248,1507,4066,1387
9.300449,1518,4035,1435
9.301649,1536,3994,1516
9.302850,1561,3966,1560
9.304050,1564,3889,1594
9.305251,1578,3801,1672
9.306451,1586,3761,1769
9.307652,1585,3667,1816
9.308852,1593,3544,1899
9.310053,1605,3499,1943
9.311253,1605,3414,1970
9.312454,1615,3366,1988
9.313654,1624,3319,1994
9.314855,1623,3291,2010
9.329810,1635,3233,1981
9.331010,1622,3207,2010
9.332211,1646,3181,1983
9.333411,1643,3164,1995
9.334611,1612,3142,1977
9.335812,1615,3139,1987
9.337012,1604,3146,1985
9.338213,1607,3145,1973
9.339413,1591,3165,1951
9.340614,1563,3174,1928
9.341814,1590,3208,1900
9.343015,1584,3220,1886
9.344215,1616,3218,1870
9.345416,1616,3211,1870
9.346616,1596,3240,1866
9.347817,1592,3318,1867
9.349017,1597,3353,1862
9.350218,1586,3382,1874
9.351418,1590,3386,1904
9.352619,1608,3373,2007
9.384226,1645,3353,9015
9.385426,995,-4487,16726
9.386627,1345,-6837,16910
9.387827,3324,-3546,-1748
9.389028,2515,2065,-1229
9.390228,1668,3741,994
9.391429,836,3865,3613
9.392629,1032,4552,3513
9.393830,1220,4512,3578
9.395030,1401,4348,2765
9.396231,1561,3939,2238
9.397431,1753,3322,1707
9.398631,1764,2951,1328
9.399832,1581,2740,1217
9.401032,1532,3013,768
9.402233,1508,3442,854
9.403433,1598,3759,883
9.404634,1708,3825,757
9.405834,1747,3950,340
9.407035,1714,4069,210
9.438358,1702,4177,-94
9.439559,1656,4317,-272
9.440759,1661,4567,-409
9.441960,1649,4786,-490
9.443160,1610,4880,-553
9.444361,1554,5059,-596
9.445561,1507,5182,-682
9.446762,1396,5165,-735
9.447962,1304,5196,-755
9.449163,1273,5233,-738
9.450363,1250,5214,-736
9.451564,1326,5205,-765
9.452764,1384,5207,-814
9.453965,1523,5260,-952
9.455165,1565,5254,-1127
9.456366,1558,5194,-1282
9.457566,1540,5163,-1294
9.458767,1507,5154,-1317
9.459967,1504,5175,-1314
9.461168,1494,5156,-1376
9.438468,1510,5054,-1177
9.439669,1437,5013,-876
9.440869,1417,4942,-451
9.442070,1408,4822,-189
9.443270,1363,4358,320
9.444471,1307,4348,1368
9.445671,903,3984,1607
9.446872,79,3235,2229
9.448072,725,3303,3466
9.449273,1305,3096,3481
9.450473,1430,2458,3353
9.451674,1566,2214,3504
9.452874,1687,1996,3881
9.454075,1727,1921,4049
9.455275,1733,1976,4046
9.456476,1738,2031,3859
9.457676,1774,2187,3606
9.458876,1792,2410,3444
9.460077,1760,2484,3113
9.461277,1685,2639,2750
9.475277,1665,2832,2553
9.476477,1627,3058,2268
9.477678,1596,3143,2025
