# t,ax,ay,az (t in seconds since start)
0.000000,2589,2791,-1385
0.001200,2575,2791,-1426
0.002401,2563,2809,-1423
0.003601,2567,2798,-1406
0.004802,2530,2791,-1415
0.006002,2557,2800,-1442
0.007203,2550,2791,-1438
0.008403,2552,2782,-1443
0.009604,2559,2784,-1459
0.010804,2567,2789,-1494
0.012005,2570,2776,-1514
0.013205,2556,2755,-1534
0.014406,2611,2755,-1565
0.015606,2637,2731,-1603
0.016807,2666,2715,-1644
0.018007,2666,2695,-1686
0.019208,2668,2683,-1686
0.020408,2678,2684,-1701
0.021609,2693,2701,-1712
0.022809,2709,2707,-1686
0.000156,2729,2690,-1681
0.001356,2733,2692,-1694
0.002557,2739,2698,-1692
0.003757,2766,2704,-1660
0.004958,2760,2718,-1641
0.006158,2760,2728,-1616
0.007358,2767,2743,-1602
0.008559,2750,2747,-1597
0.009759,2747,2749,-1590
0.010960,2746,2756,-1590
0.012160,2722,2739,-1561
0.013361,2719,2760,-1558
0.014561,2727,2767,-1547
0.015762,2722,2755,-1530
0.016962,2722,2758,-1517
0.018163,2711,2721,-1475
0.019363,2704,2716,-1469
0.020564,2690,2683,-1465
0.021764,2710,2677,-1447
0.022965,2679,2666,-1416
0.000240,2692,2651,-1371
0.001440,2694,2635,-1363
0.002641,2670,2632,-1343
0.003841,2661,2629,-1301
0.005042,2666,2601,-1293
0.006242,2652,2602,-1279
0.007443,2637,2593,-1268
0.008643,2660,2617,-1312
0.009844,2656,2604,-1307
0.011044,2657,2631,-1319
0.012244,2680,2650,-1351
0.013445,2695,2643,-1369
0.014645,2703,2672,-1377
0.015846,2696,2683,-1408
0.017046,2706,2711,-1423
0.018247,2706,2723,-1415
0.019447,2717,2738,-1448
0.020648,2735,2746,-1472
0.021848,2723,2771,-1463
0.023049,2729,2797,-1495
0.081680,2742,2800,-1503
0.082880,2728,2819,-1529
0.084081,2732,2820,-1540
0.085281,2742,2855,-1564
0.086482,2737,2858,-1560
0.087682,2745,2861,-1582
0.088883,2732,2867,-1589
0.090083,2735,2867,-1571
0.091284,2740,2854,-1575
0.092484,2754,2838,-1585
0.093685,2740,2828,-1575
0.094885,2748,2795,-1563
0.096086,2761,2789,-1533
0.097286,2750,2758,-1494
0.098487,2746,2748,-1450
0.099687,2771,2720,-1423
0.100888,2744,2714,-1397
0.102088,2742,2699,-1371
0.103289,2743,2682,-1346
0.104489,2740,2688,-1332
0.081850,2706,2668,-1324
0.083051,2732,2664,-1306
0.084251,2726,2666,-1318
0.085452,2746,2641,-1290
0.086652,2742,2645,-1286
0.087853,2753,2637,-1267
0.089053,2762,2653,-1247
0.090254,2751,2645,-1210
0.091454,2740,2652,-1198
0.092655,2678,2668,-1157
0.093855,2657,2686,-1160
0.095056,2618,2686,-1170
0.096256,2605,2748,-1209
0.097457,2593,2750,-1219
0.098657,2605,2774,-1259
0.099858,2618,2798,-1303
0.101058,2629,2823,-1327
0.102259,2640,2822,-1353
0.103459,2651,2837,-1399
0.104660,2647,2842,-1466
0.135285,2638,2842,-1517
0.136485,2629,2851,-1582
0.137686,2623,2852,-1649
0.138886,2650,2844,-1662
0.140087,2647,2845,-1706
0.141287,2632,2842,-1784
0.142488,2672,2859,-1765
0.143688,2675,2841,-1775
0.144889,2671,2839,-1743
0.146089,2687,2832,-1698
0.147290,2694,2819,-1679
0.148490,2692,2787,-1623
0.149691,2710,2789,-1578
0.150891,2726,2773,-1527
0.152092,2722,2772,-1523
0.153292,2725,2733,-1496
0.154492,2727,2739,-1495
0.155693,2725,2718,-1490
0.156893,2730,2719,-1508
0.158094,2749,2724,-1511
0.189260,2748,2697,-1524
0.190460,2760,2697,-1514
0.191660,2746,2683,-1492
0.192861,2775,2668,-1476
0.194061,2767,2667,-1459
0.195262,2785,2666,-1411
0.196462,2771,2667,-1354
0.197663,2785,2682,-1305
0.198863,2767,2684,-1277
0.200064,2774,2692,-1249
0.201264,2746,2692,-1240
0.202465,2746,2731,-1227
0.203665,2725,2728,-1213
0.204866,2733,2740,-1207
0.206066,2723,2753,-1213
0.207267,2686,2745,-1203
0.208467,2694,2738,-1200
0.209668,2685,2749,-1195
0.210868,2686,2734,-1203
0.212069,2685,2757,-1212
0.224222,2681,2736,-1264
0.225423,2672,2750,-1304
0.226623,2660,2750,-1337
0.227824,2671,2764,-1385
0.229024,2688,2780,-1432
0.230225,2684,2804,-1452
0.231425,2680,2820,-1488
0.232626,2694,2820,-1507
0.233826,2724,2819,-1511
0.235027,2723,2824,-1508
0.236227,2730,2826,-1478
0.237427,2739,2820,-1460
0.238628,2738,2844,-1435
0.239828,2742,2857,-1404
0.241029,2725,2841,-1376
0.242229,2724,2884,-1363
0.243430,2721,2896,-1359
0.244630,2721,2900,-1342
0.245831,2705,2923,-1357
0.247031,2679,2949,-1338
0.276303,2663,2941,-1369
0.277504,2659,2933,-1374
0.278704,2655,2919,-1379
0.279905,2668,2882,-1388
0.281105,2668,2852,-1368
0.282306,2681,2834,-1364
0.283506,2708,2783,-1367
0.284707,2682,2758,-1362
0.285907,2697,2717,-1379
0.287108,2686,2679,-1389
0.288308,2705,2653,-1375
0.289508,2712,2641,-1392
0.290709,2710,2629,-1404
0.291909,2711,2604,-1428
0.293110,2722,2601,-1445
0.294310,2715,2593,-1490
0.295511,2704,2587,-1493
0.296711,2702,2599,-1543
0.297912,2702,2606,-1561
0.299112,2691,2607,-1565
0.276470,2704,2612,-1563
0.277670,2696,2616,-1539
0.278871,2696,2641,-1524
0.280071,2701,2652,-1526
0.281272,2681,2662,-1486
0.282472,2680,2673,-1472
0.283673,2684,2707,-1454
0.284873,2676,2737,-1453
0.286074,2663,2740,-1462
0.287274,2684,2775,-1447
0.288475,2670,2806,-1437
0.289675,2670,2832,-1442
0.290876,2683,2835,-1457
0.292076,2681,2860,-1428
0.293277,2689,2867,-1446
0.294477,2697,2872,-1451
0.295678,2676,2884,-1458
0.296878,2681,2872,-1469
0.298079,2659,2861,-1513
0.299279,2653,2857,-1549
0.329551,2669,2851,-1562
0.330752,2658,2821,-1607
0.331952,2697,2822,-1635
0.333152,2717,2819,-1624
0.334353,2711,2824,-1597
0.335553,2738,2833,-1561
0.336754,2742,2836,-1508
0.337954,2739,2844,-1469
0.339155,2722,2857,-1431
0.340355,2713,2866,-1395
0.341556,2723,2878,-1372
0.342756,2724,2892,-1362
0.343957,2742,2905,-1351
0.345157,2739,2917,-1331
0.346358,2731,2883,-1332
0.347558,2715,2904,-1330
0.348759,2721,2902,-1334
0.349959,2710,2904,-1354
0.351160,2709,2915,-1373
0.352360,2710,2917,-1371
0.359110,2692,2891,-1382
0.360311,2700,2882,-1387
0.361511,2712,2860,-1374
0.362711,2682,2842,-1369
0.363912,2666,2798,-1371
0.365112,2663,2748,-1383
0.366313,2634,2727,-1406
0.367513,2629,2676,-1458
0.368714,2618,2634,-1494
0.369914,2631,2603,-1573
0.371115,2621,2590,-1624
0.372315,2632,2555,-1676
0.373516,2637,2542,-1696
0.374716,2620,2530,-1727
0.375917,2638,2528,-1730
0.377117,2636,2519,-1720
0.378318,2628,2544,-1704
0.379518,2659,2535,-1665
0.380719,2666,2553,-1658
0.381919,2672,2567,-1597
0.408431,2679,2571,-1558
0.409631,2700,2591,-1529
0.410832,2704,2617,-1508
0.412032,2708,2636,-1505
0.413232,2719,2660,-1475
0.414433,2721,2686,-1489
0.415633,2741,2754,-1490
0.416834,2757,2761,-1496
0.418034,2760,2834,-1495
0.419235,2780,2876,-1502
0.420435,2800,2908,-1474
0.421636,2800,2931,-1467
0.422836,2798,2971,-1463
0.424037,2792,2981,-1431
0.425237,2794,2972,-1410
0.426438,2791,2989,-1396
0.427638,2777,2977,-1388
0.428839,2762,2977,-1389
0.430039,2736,2966,-1402
0.431240,2745,2921,-1412
0.470003,2747,2912,-1415
0.471204,2731,2896,-1428
0.472404,2734,2877,-1434
0.473605,2720,2825,-1417
0.474805,2713,2815,-1434
0.476005,2701,2764,-1421
0.477206,2698,2710,-1403
0.478406,2689,2659,-1446
0.479607,2689,2632,-1481
0.480807,2682,2610,-1498
0.482008,2682,2575,-1502
0.483208,2675,2318,-1531
0.484409,2675,2532,-1566
0.485609,2671,2539,-1580
0.486810,2665,2541,-1574
0.488010,2672,2540,-1595
0.489211,2671,2553,-1607
0.490411,2672,2574,-1615
0.491612,2695,2576,-1640
0.492812,2695,2596,-1642
0.470131,2705,2646,-1651
0.471332,2725,2678,-1637
0.472532,2742,2702,-1627
0.473733,2785,2734,-1626
0.474933,2780,2766,-1602
0.476134,2791,2776,-1578
0.477334,2821,2811,-1555
0.478535,2817,2842,-1526
0.479735,2821,2865,-1491
0.480936,2824,2864,-1499
0.482136,2566,2883,-1490
0.483337,2795,2903,-1473
0.484537,2801,2901,-1504
0.485737,2801,2937,-1514
0.486938,2815,2944,-1519
0.488138,2889,2951,-1541
0.489339,2947,2959,-1560
0.490539,2932,2987,-1525
0.491740,2838,2991,-1428
0.492940,2808,2938,-1529
0.538697,2876,2875,-1788
0.539897,2924,2891,-1808
0.541098,3176,2878,-1677
0.542298,3658,2917,-1846
0.543499,3284,3021,-1747
0.544699,2988,2557,-1370
0.545900,2607,2363,-1548
0.547100,2543,2281,-1784
0.548301,2546,2170,-1673
0.549501,2564,2157,-1441
0.550702,2646,2143,-1402
0.551902,2663,2062,-1448
0.553103,2669,2037,-1513
0.554303,2868,2240,-1308
0.555504,3186,2409,-643
0.556704,2820,1322,-884
0.557905,2612,1221,-1715
0.559105,2667,975,-2018
0.560306,2735,1100,-1612
0.561506,2924,1122,-1323
0.538949,2823,1043,-1301
0.540149,3008,1370,-1373
0.541350,2995,1163,-1343
0.542550,2877,1277,-1297
0.543751,2745,1285,-1290
0.544951,2750,1386,-1326
0.546151,2865,1356,-1334
0.547352,2796,1340,-1273
0.548552,2819,1448,-1264
0.549753,2840,1588,-1129
0.550953,1611,1029,-505
0.552154,1909,1685,-1522
0.553354,2308,2394,-1777
0.554555,2820,2513,-1796
0.555755,2732,2468,-1340
0.556956,2357,2302,-1511
0.558156,2529,2506,-1415
0.559357,2616,2567,-1397
0.560557,2650,2749,-1238
0.561758,2678,2956,-1168
0.590532,2570,2940,-1130
0.591732,2452,2972,-1250
0.592933,2350,2921,-1277
0.594133,2334,3248,-1257
0.595333,2595,3327,-1048
0.596534,2607,3232,-1262
0.597734,2508,3142,-1423
0.598935,2882,2924,-1358
0.600135,2769,2860,-1663
0.601336,2753,3237,-1708
0.602536,2663,3577,-1511
0.603737,2437,3602,-1308
0.604937,2196,3460,-1278
0.606138,2160,3292,-1233
0.607338,2307,3343,-1155
0.608539,2361,3418,-1132
0.609739,2302,3403,-1107
0.610940,2240,3475,-1036
0.612140,2267,3507,-1002
0.613341,2326,3517,-964
0.641559,2342,3520,-998
0.642759,2387,3574,-1008
0.643960,2405,3465,-1391
0.645160,2327,3308,-1632
0.646361,2317,3889,-888
0.647561,2370,4062,-14
0.648762,2405,4280,148
0.649962,2345,4469,44
0.651163,2343,4572,220
0.652363,2416,4766,536
0.653564,2405,4856,675
0.654764,2397,4918,802
0.655965,2389,4940,779
0.657165,2394,5018,782
0.658366,2442,5071,853
0.659566,2524,5086,882
0.660767,2567,5112,924
0.661967,2561,5039,953
0.663168,2579,4925,1059
0.664368,2563,4844,1140
0.695410,2551,4642,1120
0.696611,2551,4449,1071
0.697811,2574,4349,962
0.699012,2618,4120,759
0.700212,2619,3920,635
0.701413,2624,3819,368
0.702613,2645,3632,80
0.703814,2661,3475,-192
0.705014,2680,3290,-326
0.706215,2687,3208,-552
0.707415,2689,3084,-743
0.708616,2685,2969,-799
0.709816,2653,2904,-921
0.711017,2593,2796,-1010
0.712217,2322,2733,-1068
0.713418,2527,2705,-1133
0.714618,2479,2698,-1116
0.715819,2477,2763,-1038
0.717019,2465,2817,-985
0.718220,2479,2885,-820
0.695603,2474,2959,-572
0.696803,2492,3077,-433
0.698003,2537,3217,-30
0.699204,2593,3272,396
0.700404,2652,3351,705
0.701605,2670,3458,918
0.702805,2708,3490,1391
0.704006,2730,3555,1722
0.705206,2760,3650,1840
0.706407,2783,3737,2098
0.707607,2766,3800,2406
0.708808,2715,3884,2806
0.710008,2670,3906,2727
0.711209,2653,3938,2694
0.712409,2570,4009,2579
0.713610,2530,4028,2522
0.714810,2505,4060,2431
0.716011,2486,4047,2266
0.717211,2515,4055,1878
0.718412,2487,4075,1870
0.745586,2462,4035,1648
0.746786,2427,3987,1411
0.747987,2408,3961,1248
0.749187,2383,3915,985
0.750388,2360,3873,768
0.751588,2334,3819,379
0.752789,2268,3725,309
0.753989,2188,3690,-82
0.755190,2115,3567,-577
0.756390,2068,3427,-794
0.757591,1978,3384,-1170
0.758791,1922,3280,-1594
0.759992,1924,3160,-1779
0.761192,1916,3117,-2117
0.762393,1987,3075,-2390
0.763593,1968,2961,-2601
0.764794,1991,2892,-2715
0.765994,2086,2586,-2871
0.767194,2121,2797,-3048
0.768395,2113,2726,-3122
0.795353,2129,2659,-3193
0.796554,2158,2620,-3283
0.797754,2138,2564,-3374
0.798955,2125,2496,-3392
0.800155,2148,2468,-3440
0.801356,2160,2354,-3571
0.802556,2135,2295,-3644
0.803757,2080,2220,-3785
0.804957,2093,2183,-3918
0.806158,2078,2117,-4071
0.807358,2100,2038,-4115
0.808559,2128,2008,-4191
0.809759,2109,1985,-4212
0.810960,2099,1957,-4239
0.812160,2022,1940,-4268
0.813361,2030,1909,-4260
0.814561,1990,1892,-4387
0.815762,1920,1853,-4403
0.816962,1906,1841,-4514
0.818163,1871,1816,-4619
0.861636,1876,1752,-4669
0.862837,1809,1744,-4846
0.864037,1821,1715,-4977
0.865238,1538,1683,-5020
0.866438,1773,1667,-5137
0.867639,1803,1689,-5232
0.868839,1793,1682,-5168
0.870040,1785,1703,-5082
0.871240,1843,1734,-4931
0.872441,1847,1758,-4641
0.873641,1847,1764,-4502
0.874842,1885,1821,-4244
0.876042,1918,1832,-4028
0.877243,1936,1863,-3884
0.878443,1946,1916,-3877
0.879644,1988,1927,-3919
0.880844,2003,1964,-3957
0.882045,2013,1988,-3988
0.883245,2049,2015,-4038
0.884445,2114,2024,-4088
0.861817,2117,2024,-4071
0.863018,2115,2022,-4031
0.864218,2132,2298,-3964
0.865419,2122,2033,-3828
0.866619,2124,2052,-3716
0.867820,2131,2075,-3571
0.869020,2126,2081,-3414
0.870220,2111,2065,-3210
0.871421,2105,2135,-3110
0.872621,2091,2138,-2905
0.873822,2068,2137,-2729
0.875022,2051,2163,-2693
0.876223,2076,2251,-2578
0.877423,2049,2275,-2364
0.878624,2083,2294,-2281
0.879824,2077,2370,-2111
0.881025,2099,2378,-1946
0.882225,2103,2425,-1756
0.883426,2133,2529,-1654
0.884626,2081,2556,-1409
0.937957,2033,2560,-1167
0.939157,1979,2652,-829
0.940358,1959,2736,-896
0.941558,1955,3039,-693
0.942759,1990,2921,-522
0.943959,1978,3051,-421
0.945160,1973,3202,-226
0.946360,1971,3263,-22
0.947561,1996,3414,71
0.948761,2008,3561,277
0.949962,2050,3630,490
0.951162,2074,3758,691
0.952363,2096,3878,796
0.953563,2119,3916,996
0.954764,2160,3979,1125
0.955964,2170,4050,1164
0.957165,2169,4108,1263
0.958365,2184,4166,1352
0.959566,2207,4287,1496
0.960766,2237,4403,1567
0.938083,2282,4470,1704
0.939283,2328,4596,1888
0.940483,2362,4704,1969
0.941684,2440,4782,2155
0.942884,2484,4800,2330
0.944085,2509,4800,2444
0.945285,2533,4783,2470
0.946486,2539,4745,2568
0.947686,2545,4700,2633
0.948887,2537,4651,2647
0.950087,2547,4582,2648
0.951288,2532,4550,2632
0.952488,2504,4474,2570
0.953689,2499,4429,2525
0.954889,2519,4432,2482
0.956090,2565,4491,2555
0.957290,2597,4577,2607
0.958491,2674,4711,2721
0.959691,2789,4753,2730
0.960892,2783,4785,2720
1.060068,2759,4843,2894
1.061268,2748,4865,3232
1.062469,2731,4916,3370
1.063669,2765,4982,3365
1.064870,2816,4985,3416
1.066070,2765,4981,3621
1.067271,2731,4950,3991
1.068471,2678,4902,3943
1.069672,2674,4892,4045
1.070872,2644,4836,4179
1.072073,2628,4762,4246
1.073273,2586,4696,4331
1.074474,2502,4633,4244
1.075674,2451,4555,3932
1.076875,2359,4421,3990
1.078075,2213,4374,3744
1.079275,2086,4272,3427
1.080476,2001,4113,3263
1.081676,1859,4048,2793
1.082877,1762,3909,2271
1.060223,1714,3732,1746
1.061424,1618,3575,1469
1.062624,1563,3486,925
1.063825,1559,3326,399
1.065025,1561,3123,145
1.066226,1535,3018,-457
1.067426,1521,2853,-964
1.068627,1505,2680,-1231
1.069827,1427,2526,-1739
1.071028,1350,2466,-2277
1.072228,1269,2288,-2827
1.073428,1231,2091,-3100
1.074629,1117,1982,-3676
1.075829,1096,1828,-4305
1.077030,1085,1683,-4621
1.078230,1087,1513,-5169
1.079431,1108,1460,-5758
1.080631,1121,1317,-6297
1.081832,1167,1208,-6557
1.083032,1212,1152,-6986
1.060313,1246,1050,-7425
1.061513,1263,970,-7653
1.062714,1326,859,-8049
1.063914,1397,827,-8421
1.065115,1450,737,-8815
1.066315,1467,632,-8870
1.067516,1478,609,-9171
1.068716,1510,508,-9460
1.069917,1522,416,-9627
1.071117,1540,323,-9920
1.072318,1526,293,-10151
1.073518,1498,330,-10231
1.074719,1492,405,-9987
1.075919,1440,427,-9215
1.077120,1487,537,-8400
1.078320,1501,733,-8083
1.079520,1547,858,-7537
1.080721,1556,941,-6985
1.081921,1534,1073,-6478
1.083122,1526,1248,-6322
1.115615,1524,1310,-5924
1.116815,1570,1443,-5589
1.118016,1601,1538,-5407
1.119216,1608,1557,-5127
1.120417,1602,1600,-4822
1.121617,1583,1693,-4426
1.122818,1578,1831,-4256
1.124018,1544,1874,-3868
1.125219,1505,1965,-3554
1.126419,1502,2043,-3418
1.127620,1458,2117,-3171
1.128820,1436,2187,-2847
1.130021,1474,2233,-2715
1.131221,1514,2272,-2526
1.132422,1540,2344,-2399
1.133622,1477,2461,-2237
1.134823,1385,2444,-2159
1.136023,1309,2476,-1999
1.137223,1298,2544,-1839
1.138424,1281,2637,-1790
1.115773,1310,2719,-1678
1.116973,1322,2793,-1546
1.118174,1277,2802,-1335
1.119374,1319,2938,-1211
1.120575,1227,3004,-910
1.121775,1200,3197,-643
1.122976,1221,3456,-477
1.124176,1276,3658,-59
1.125377,1370,3813,529
1.126577,1417,4046,1414
1.127778,1463,4308,1679
1.128978,1586,4450,2608
1.130179,1710,4711,3565
1.131379,1777,4933,4080
1.132580,1983,5230,5124
1.133780,2093,5349,6123
1.134981,2210,5626,7409
1.136181,2292,5881,7734
1.137382,2455,5962,8928
1.138582,2507,6153,10075
1.163917,2469,6360,10671
1.165117,2620,6609,11850
1.166318,2799,6752,12756
1.167518,2866,7010,13278
1.168719,2843,7224,13269
1.169919,2885,7377,13172
1.171119,2879,7641,12510
1.172320,2755,7656,11972
1.173520,2441,7585,10644
1.174721,2261,7494,9466
1.175921,2241,7380,8994
1.177122,2145,7208,8136
1.178322,2054,7066,7297
1.179523,1813,6774,6416
1.180723,1669,6413,6004
1.181924,1366,5946,5076
1.183124,1059,5769,4113
1.184325,934,5311,3574
1.185525,676,4909,2492
1.186726,493,4712,1464
1.211241,353,4346,485
1.212441,298,3992,-25
1.213642,220,3816,-954
1.214842,207,3435,-1819
1.216043,224,3154,-2191
1.217243,280,2822,-2981
1.218444,287,2644,-3607
1.219644,271,2248,-4223
1.220845,273,1889,-4503
1.222045,258,1708,-5204
1.223246,281,1359,-5890
1.224446,290,1014,-6252
1.225647,321,688,-6900
1.226847,352,532,-7606
1.228048,419,255,-8428
1.229248,450,-1,-8527
1.230449,572,-95,-9126
1.231649,687,-281,-9687
1.232850,754,-421,-9943
1.234050,920,-540,-10408
1.259850,1034,-592,-10776
1.261050,1116,-659,-11216
1.262251,1259,-748,-11278
1.263451,1337,-779,-11501
1.264652,1477,-830,-11714
1.265852,1532,-880,-11774
1.267053,1556,-893,-11792
1.268253,1542,-869,-11592
1.269454,1513,-729,-10825
1.270654,1443,-591,-10411
1.271855,1501,-464,-9432
1.273055,1554,-180,-8709
1.274256,1539,24,-8371
1.275456,1490,393,-7659
1.276657,1489,406,-7024
1.277857,1535,677,-6780
1.279058,1520,840,-6282
1.280258,1492,922,-5703
1.281459,1466,1133,-5170
1.282659,1438,1288,-4940
1.306325,1402,1401,-4434
1.307525,1400,1641,-3909
1.308726,1415,1916,-3633
1.309926,1449,2211,-3066
1.311127,1502,2348,-2534
1.312327,1465,2566,-2037
1.313528,1436,2778,-1783
1.314728,1498,2948,-1427
1.315929,1533,3170,-1053
1.317129,1534,3404,-890
1.318330,1614,3602,-603
1.319530,1696,3716,-291
1.320730,1767,3921,161
1.321931,1851,4187,308
1.323131,2046,4354,1040
1.324332,2186,4733,2302
1.325532,2250,5150,3092
1.326733,2332,5617,4938
1.327933,2473,5836,6741
1.329134,2631,6225,8278
1.356202,2718,6548,8932
1.357402,2794,6654,10044
1.358603,2807,6846,10975
1.359803,2786,7044,11426
1.361004,2813,7235,12256
1.362204,2827,7322,12876
1.363405,2829,7576,13020
1.364605,2863,7871,12930
1.365806,2825,7975,12114
1.367006,2594,7911,10743
1.368207,2432,7806,10034
1.369407,2289,7497,8887
1.370608,2128,7448,7972
1.371808,2035,7017,7045
1.373009,1774,6524,6644
1.374209,1439,6281,5646
1.375410,1094,5857,4549
1.376610,943,5429,4001
1.377811,645,4943,2867
1.379011,391,4789,1745
1.406418,31,4405,1153
1.407618,151,4074,-74
1.408818,74,3902,-1265
1.410019,-45,3557,-2330
1.411219,-94,3194,-2859
1.412420,-178,2722,-3857
1.413620,-202,2568,-4854
1.414821,-218,2215,-5362
1.416021,-200,1859,-6290
1.417222,-146,1674,-7101
1.418422,-132,1290,-7949
1.419623,-112,901,-8375
1.420823,-43,752,-9260
1.422024,31,387,-10009
1.423224,118,64,-10348
1.424425,318,-273,-10961
1.425625,517,-429,-11515
1.426826,703,-741,-11794
1.428026,789,-1055,-12245
1.429227,913,-1197,-12555
1.455129,948,-1499,-12735
1.456330,1004,-1678,-12815
1.457530,1122,-1757,-12957
1.458731,1200,-1775,-13050
1.459931,1229,-1790,-13070
1.461132,1193,-1762,-12908
1.462332,1150,-1711,-12166
1.463533,1197,-1505,-11223
1.464733,1220,-1299,-10816
1.465934,1320,-1085,-10197
1.467134,1298,-1041,-9747
1.468335,1262,-866,-9284
1.469535,1208,-682,-9024
1.470736,1117,-567,-8403
1.471936,1073,-310,-7590
1.473136,1100,-84,-7274
1.474337,1036,207,-6846
1.475537,887,83,-6400
1.476738,828,266,-5864
1.477938,748,454,-5552
1.455298,756,566,-5129
1.456499,825,830,-4759
1.457699,848,1094,-4520
1.458900,904,1485,-3990
1.460100,968,1530,-3376
1.461301,1268,1871,-3021
1.462501,1112,2230,-2116
1.463702,1186,2436,-915
1.464902,1221,2845,786
1.466103,1172,3291,1820
1.467303,1126,3769,4018
1.468504,1173,4140,6398
1.469704,1228,4864,7567
1.470905,1380,5456,9737
1.472105,1562,5755,11645
1.473306,1764,6369,13418
1.474506,1899,7001,14185
1.475707,2144,7329,15444
1.476907,2406,7992,16443
1.478108,2505,8629,16887
1.508265,2709,9310,17413
1.509466,2826,9646,17342
1.510666,2944,10258,16536
1.511867,2892,10546,15872
1.513067,2449,10528,14109
1.514268,1893,10379,12321
1.515468,1739,10378,11587
1.516669,1285,10006,10632
1.517869,1069,9723,9413
1.519069,623,9146,7859
1.520270,525,8580,7036
1.521470,81,8227,5609
1.522671,-361,7622,4230
1.523871,-588,7025,3500
1.525072,-1020,6473,1996
1.526272,-1316,6147,484
1.527473,-1705,5523,-1013
1.528673,-1662,4960,-1652
1.529874,-1854,4677,-3010
1.531074,-1980,4114,-4285
1.508472,-2013,3531,-4890
1.509673,-2077,2960,-6045
1.510873,-2081,2596,-7200
1.512074,-1795,2028,-7748
1.513274,-1969,1460,-8895
1.514475,-1853,932,-9919
1.515675,-1694,654,-10870
1.516876,-1561,128,-11305
1.518076,-1299,-372,-12153
1.519277,-996,-549,-12909
1.520477,-617,-1020,-13243
1.521677,-620,-1458,-13869
1.522878,-376,-1667,-14383
1.524078,-131,-2075,-14857
1.525279,-27,-2410,-15077
1.526479,139,-2577,-15327
1.527680,367,-2858,-15509
1.528880,464,-3091,-15619
1.530081,656,-3307,-15830
1.531281,796,-3384,-15799
1.560274,817,-3534,-15226
1.561475,784,-3406,-14704
1.562675,724,-3267,-13301
1.563876,792,-2945,-12268
1.565076,718,-2715,-11917
1.566277,500,-2398,-11270
1.567477,384,-2247,-10458
1.568678,375,-1849,-9848
1.569878,385,-1513,-9541
1.571079,294,-1397,-9153
1.572279,130,-1131,-8587
1.573480,61,-781,-8176
1.574680,-40,-431,-7381
1.575881,-140,-269,-6701
1.577081,-176,55,-6184
1.578282,-181,389,-5958
1.579482,-165,550,-5443
1.580683,-138,939,-4856
1.581883,-101,1305,-4609
1.583084,67,1731,-4213
1.649316,341,1802,-3887
1.650517,765,2156,-3089
1.651717,899,2494,-2977
1.652918,1025,2658,-1949
1.654118,899,3154,258
1.655319,753,3682,1753
1.656519,281,4190,5267
1.657720,175,4660,8571
1.658920,258,5460,9754
1.660121,688,6134,11600
1.661321,1137,6459,13394
1.662522,1496,7102,15262
1.663722,1637,7773,16167
1.664923,1933,8272,18190
1.666123,2362,8637,19541
1.667324,2927,9434,20011
1.668524,2955,10126,20547
1.669725,2682,10305,21162
1.670925,2695,11126,20287
1.672126,2458,11537,19659
1.649464,1986,11338,17690
1.650664,1294,11333,15768
1.651865,1086,11225,15055
1.653065,994,11041,13447
1.654266,389,10732,11975
1.655466,-446,10246,10014
1.656667,-775,9646,9194
1.657867,-1352,9302,7334
1.659068,-1828,8674,5467
1.660268,-2119,7896,4581
1.661469,-2725,7107,2830
1.662669,-3190,6785,1053
1.663870,-3549,6109,-566
1.665070,-3701,5446,-1416
1.666271,-4000,5099,-2856
1.667471,-4253,4311,-4311
1.668672,-4340,3585,-5113
1.669872,-4582,2835,-6702
1.671073,-4715,2477,-8170
1.672273,-4796,1725,-9620
1.700102,-4642,1093,-10247
1.701303,-4435,769,-11644
1.702503,-4077,114,-12812
1.703704,-3925,-525,-13367
1.704904,-3494,-1275,-14411
1.706105,-3164,-1398,-15329
1.707305,-2721,-1944,-16264
1.708506,-2534,-2427,-16575
1.709706,-2221,-2701,-17299
1.710907,-2041,-3202,-17899
1.712107,-1820,-3450,-18142
1.713308,-1469,-3969,-18654
1.714508,-1117,-4153,-19261
1.715709,-644,-4530,-19564
1.716909,-620,-4966,-19899
1.718110,-472,-5118,-20011
1.719310,-358,-5305,-19658
1.720511,-407,-5327,-19186
1.721711,-496,-4922,-17876
1.722911,-594,-4944,-16550
1.700260,-625,-4627,-16131
1.701461,-764,-4368,-15385
1.702661,-761,-4168,-14736
1.703861,-948,-3975,-14047
1.705062,-1109,-3701,-13751
1.706262,-1411,-3516,-12824
1.707463,-1642,-3103,-11828
1.708663,-1744,-2723,-11370
1.709864,-1934,-2263,-10645
1.711064,-2070,-2054,-9827
1.712265,-2135,-1604,-8979
1.713465,-2154,-1154,-8871
1.714666,-2281,-944,-8282
1.715866,-2423,-524,-7610
1.717067,-2457,-11,-7203
1.718267,-2542,366,-6462
1.719468,-2655,593,-5717
1.720668,-2651,1037,-5100
1.721869,-2577,1637,-4620
1.723069,-2341,1939,-3676
1.753009,-2077,2519,-2603
1.754209,-1975,3118,-1969
1.755410,-1943,3809,54
1.756610,-2253,4166,3456
1.757811,-3071,4763,8005
1.759011,-2999,5238,9990
1.760212,-2891,5500,13171
1.761412,-2209,6334,15118
1.762613,-1812,7223,16138
1.763813,-1070,7852,18439
1.765014,-297,8298,21325
1.766214,713,8919,23322
1.767415,1016,9614,24381
1.768615,1736,10050,25483
1.769816,2070,10817,26379
1.771016,2125,11484,26721
1.772217,2268,12100,26722
1.773417,2130,12470,25495
1.774618,1715,12568,24288
1.775818,1126,11944,21175
1.780564,483,11863,18357
1.781764,333,11717,16347
1.782965,116,11007,15637
1.784165,-441,10401,13880
1.785366,-1102,10044,11635
1.786566,-1433,9361,10453
1.787766,-2155,8633,8352
1.788967,-2928,8225,6507
1.790167,-3617,7265,4563
1.791368,-3977,6431,3483
1.792568,-4559,5803,1374
1.793769,-5036,5306,-575
1.794969,-5213,4565,-1447
1.796170,-5453,3821,-3124
1.797370,-5645,3455,-4805
1.798571,-5724,2747,-6485
1.799771,-5715,2103,-7375
1.800972,-5701,1737,-8899
1.802172,-5616,1097,-10425
1.803373,-5451,456,-11071
1.829230,-5051,-103,-12485
1.830430,-4644,-377,-13775
1.831631,-4234,-928,-14920
1.832831,-4025,-1371,-15556
1.834032,-3603,-1621,-16578
1.835232,-3140,-2144,-17485
1.836433,-2904,-2493,-18415
1.837633,-2474,-2871,-18859
1.838834,-2179,-3075,-19771
1.840034,-1977,-3396,-20691
1.841235,-1533,-3586,-20776
1.842435,-1084,-3741,-21271
1.843636,-807,-4025,-21658
1.844836,-720,-4213,-21890
1.846037,-536,-4241,-21943
1.847237,-232,-4067,-21145
1.848438,-312,-4157,-20079
1.849638,-613,-3955,-19205
1.850839,-691,-3830,-17813
1.852039,-800,-3568,-16949
1.879319,-849,-3297,-16592
1.880520,-1421,-3588,-16166
1.881720,-8679,-7266,-16568
1.882921,-4330,-722,-14362
1.884121,-2519,1630,-9557
1.885322,-760,2122,-10647
1.886522,-512,2160,-12806
1.887723,-876,997,-12714
1.888923,-1764,219,-11274
1.890124,-2004,159,-9995
1.891324,-1912,320,-9573
1.892525,-1480,472,-8948
1.893725,-1059,487,-8476
1.894926,-965,528,-7831
1.896126,-947,840,-7287
1.897327,-842,1729,-5351
1.898527,-896,2163,-1938
1.899727,-1299,2883,549
1.900928,-2572,3115,6278
1.902128,-3658,3248,10886
1.927570,-3809,3763,13915
1.928770,-3560,4735,15290
1.929971,-2548,5341,17474
1.931171,-1351,6465,19530
1.932372,-700,7464,20454
1.933572,411,8524,22137
1.934773,1330,9026,23287
1.935973,1966,9837,24205
1.937174,2188,10323,24714
1.938374,2439,10510,25513
1.939575,2574,10894,25479
1.940775,2596,11278,24848
1.941976,2298,10864,22323
1.943176,1533,10574,19261
1.944377,1069,10492,16873
1.945577,1182,10116,16006
1.946778,849,9756,14470
1.947978,225,9068,12458
1.949179,-154,8402,11364
1.950379,-932,7835,9137
1.973719,-1661,7348,7079
1.974919,-2510,6658,5091
1.976120,-2623,5907,4054
1.977320,-3094,5531,2066
1.978521,-3527,4809,109
1.979721,-3701,4013,-845
1.980922,-4050,3124,-2522
1.982122,-4353,2885,-4297
1.983323,-4465,2149,-5190
1.984523,-4677,1347,-7043
1.985723,-4683,951,-8764
1.986924,-4538,201,-10504
1.988124,-4411,-460,-11352
1.989325,-3967,-1026,-12898
1.990525,-3508,-1347,-14167
1.991726,-3277,-1907,-15264
1.992926,-2791,-2413,-15923
1.994127,-2384,-2667,-16937
1.995327,-1981,-3123,-17844
1.996528,-1776,-3527,-18280
2.021909,-1402,-3713,-19053
2.023109,-1014,-4109,-19808
2.024310,-807,-4345,-20111
2.025510,-489,-4584,-20490
2.026711,-243,-4671,-20786
2.027911,-23,-4833,-21181
2.029112,70,-4883,-21035
2.030312,100,-4902,-20454
2.031512,-155,-4771,-18835
2.032713,-222,-4450,-17915
2.033913,-154,-4038,-16569
2.035114,-298,-3910,-15451
2.036314,-593,-3727,-14399
2.037515,-723,-3514,-13913
2.038715,-927,-3328,-12970
2.039916,-1088,-2980,-12037
2.041116,-1225,-2609,-11585
2.042317,-1465,-2246,-10793
2.043517,-1733,-2085,-10043
2.044718,-1818,-1711,-9433
2.022050,-1897,-1323,-9015
2.023251,-1952,-1076,-8341
2.024451,-2039,-702,-7737
2.025652,-2052,-264,-7460
2.026852,-2041,225,-6919
2.028053,-2030,399,-6369
2.029253,-2001,812,-6101
2.030454,-1847,1253,-5657
2.031654,-1510,1511,-5193
2.032855,-1048,2073,-4533
2.034055,-825,2763,-3987
2.035256,-549,3712,-2097
2.036456,-745,4141,1480
2.037657,-1299,5073,3785
2.038857,-1776,5817,8487
2.040058,-2068,6204,12022
2.041258,-1732,7149,14291
2.042459,-1459,8145,15124
2.043659,-746,9155,16639
2.044860,50,9579,18270
2.065776,454,10510,19165
2.066976,1395,11392,20862
2.068177,2230,11771,22054
2.069377,2793,12312,22770
2.070578,2882,12536,23016
2.071778,2742,12605,23431
2.072979,2546,12736,23006
2.074179,2407,12472,22082
2.075380,1833,11711,19205
2.076580,1286,11586,16292
2.077781,926,11157,14791
2.078981,733,10351,14066
2.080182,93,9950,12469
2.081382,-618,9092,10356
2.082583,-993,8307,9279
2.083783,-1843,7326,7302
2.084984,-2627,6817,5466
2.086184,-3181,5863,3440
2.087385,-3564,5122,2344
2.088585,-4075,4686,278
2.146218,-4342,3909,-1424
2.147418,-4443,3037,-2187
2.148619,-4585,2202,-3905
2.149819,-4635,1771,-5811
2.151020,-4674,954,-7567
2.152220,-4739,71,-8411
2.153421,-4631,-350,-10045
2.154621,-4352,-1200,-11724
2.155822,-4210,-1859,-12558
2.157022,-3779,-2440,-13909
2.158223,-3287,-2833,-15132
2.159423,-2829,-3321,-15688
2.160624,-2687,-3811,-16708
2.161824,-2306,-3998,-17583
2.163025,-1983,-4360,-18416
2.164225,-1827,-4714,-18864
2.165426,-1532,-4876,-19630
2.166626,-1247,-5085,-20338
2.167827,-849,-5274,-20638
2.169027,-715,-5344,-21203
2.146361,-272,-5341,-21607
2.147561,-32,-5337,-21669
2.148762,23,-5373,-21491
2.149962,-256,-5418,-20263
2.151163,-590,-5331,-18541
2.152363,-609,-5062,-17807
2.153564,-768,-4821,-16788
2.154764,-1123,-4678,-15834
2.155965,-1423,-4372,-14724
2.157165,-1535,-3879,-14173
2.158366,-1742,-3574,-13308
2.159566,-1926,-3058,-12503
2.160767,-2028,-2534,-12131
2.161967,-2252,-2002,-11348
2.163168,-2423,-1763,-10660
2.164368,-2552,-1232,-10130
2.165569,-2630,-683,-9841
2.166769,-2701,-511,-9185
2.167969,-2699,-139,-8492
2.169170,-2692,327,-8134
2.199228,-2654,878,-7325
2.200428,-2634,1158,-6174
2.201629,-2636,1729,-5110
2.202829,-2647,2229,-4467
2.204030,-2489,2579,-3262
2.205230,-2282,3224,-1791
2.206431,-2199,4094,-745
2.207631,-2112,4995,2095
2.208832,-2482,5395,6087
2.210032,-2962,6144,10322
2.211233,-2784,6979,12106
2.212433,-2317,7921,14870
2.213634,-1634,8316,16924
2.214834,-1285,9208,17787
2.216035,-424,10203,19614
2.217235,554,10620,21471
2.218436,1285,11442,22291
2.219636,1813,12133,23710
2.220836,2340,12325,24638
2.222037,2462,12570,25296
2.242773,2463,12848,25458
2.243974,2431,13254,25034
2.245174,2072,13026,22894
2.246375,1169,12206,21254
2.247575,1027,11981,18117
2.248776,668,11831,16246
2.249976,93,11100,14997
2.251177,-290,10274,14199
2.252377,-936,9669,11962
2.253577,-1683,9180,9704
2.254778,-2083,8171,8722
2.255978,-2988,7208,6898
2.257179,-3997,6787,4769
2.258379,-4846,5980,2524
2.259580,-5144,5179,1489
2.260780,-5587,4713,-254
2.261981,-5774,3842,-2119
2.263181,-5903,2994,-3144
2.264382,-6178,2189,-5145
2.265582,-6214,1740,-7040
2.292260,-6142,859,-8950
2.293461,-6111,61,-9666
2.294661,-5900,-320,-11381
2.295862,-5574,-1067,-12940
2.297062,-5386,-1785,-13682
2.298263,-4882,-2363,-15087
2.299463,-4406,-2669,-16360
2.300664,-3620,-3246,-17482
2.301864,-3563,-3731,-18004
2.303065,-3061,-3912,-18953
2.304265,-2607,-4398,-19720
2.305466,-2389,-4792,-20126
2.306666,-2017,-5202,-20849
2.307867,-1610,-5253,-21605
2.309067,-1157,-5432,-22106
2.310268,-1075,-5551,-22227
2.311468,-818,-5584,-22405
2.312669,-621,-5577,-22384
2.313869,-582,-5563,-22164
2.315070,-846,-5510,-20818
2.366353,-1061,-5251,-18928
2.367554,-1055,-4865,-18184
2.368754,-1133,-4481,-17019
2.369955,-1427,-4400,-15852
2.371155,-1855,-4121,-14671
2.372356,-1971,-3701,-14197
2.373556,-2154,-3207,-13336
2.374757,-2312,-3034,-12500
2.375957,-2424,-2542,-12089
2.377157,-2665,-2055,-11250
2.378358,-2889,-1824,-10346
2.379558,-3061,-1328,-9513
2.380759,-3123,-856,-9160
2.381959,-3224,-354,-8536
2.383160,-3215,-116,-8002
2.384360,-3188,349,-7685
2.385561,-3078,802,-7156
2.386761,-2860,1036,-6659
2.387962,-2468,1552,-6066
2.389162,-2214,2090,-5793
2.366525,-1695,2370,-4895
2.367725,-1321,3024,-3352
2.368926,-1305,3700,-2219
2.370126,-1609,4406,1001
2.371327,-2227,4739,4986
2.372527,-2761,5286,8683
2.373728,-2818,5878,10309
2.374928,-2400,6261,12764
2.376128,-1654,7089,14611
2.377329,-1290,7772,15588
2.378529,-625,8463,17799
2.379730,127,8808,20234
2.380930,819,9555,22110
2.382131,1435,10263,22950
2.383331,2119,10574,23835
2.384532,2569,11070,24284
2.385732,2628,11350,24342
2.386933,2574,11648,23956
2.388133,2395,11613,22209
2.389334,1892,11169,19298
2.366720,1515,10976,17821
2.367921,1246,10829,15617
2.369121,906,10247,14234
2.370322,599,9535,13528
2.371522,74,8954,11485
2.372723,-572,8495,9208
2.373923,-1147,7695,8221
2.375124,-1666,6821,6324
2.376324,-2481,6424,4327
2.377525,-3140,5704,2172
2.378725,-3367,4952,1119
2.379926,-3726,4168,-637
2.381126,-3962,3945,-2225
2.382327,-4104,3171,-3043
2.383527,-4286,2548,-4818
2.384728,-4381,2195,-6741
2.385928,-4343,1498,-8423
2.387129,-4259,878,-9188
2.388329,-4157,318,-10650
2.389530,-3936,-18,-12159
2.412306,-3822,-558,-12865
2.413506,-3545,-1067,-14094
2.414707,-3275,-1343,-15240
2.415907,-3005,-1840,-16326
2.417108,-2837,-2287,-16913
2.418308,-2499,-2510,-18003
2.419509,-2127,-2916,-19041
2.420709,-1924,-3283,-19531
2.421910,-1569,-3630,-20481
2.423110,-1166,-3751,-21199
2.424311,-783,-3930,-21711
2.425511,-606,-4038,-21859
2.426712,-328,-4084,-22052
2.427912,-250,-4147,-21700
2.429113,-345,-4265,-21142
2.430313,-731,-4114,-19462
2.431513,-814,-3981,-17932
2.432714,-801,-3798,-16907
2.433914,-1047,-3742,-16530
2.435115,-1493,-3716,-15499
2.457410,-1808,-3527,-14522
2.458610,-1930,-3239,-14038
2.459811,-2166,-3061,-13111
2.461011,-2370,-2745,-12187
2.462212,-2466,-2464,-11456
2.463412,-2582,-2044,-10887
2.464613,-2599,-1864,-10196
2.465813,-2644,-1530,-9626
2.467014,-2611,-1084,-9292
2.468214,-2549,-615,-8751
2.469415,-2432,-404,-8117
2.470615,-2116,52,-7770
2.471816,-2164,551,-6954
2.473016,-1966,787,-6029
2.474217,-1768,1291,-4929
2.475417,-1680,1907,-4202
2.476617,-1655,2769,-2233
2.477818,-1866,2961,612
2.479018,-2069,3714,2379
2.480219,-2583,4510,6489
2.502278,-2697,5013,10769
2.503478,-2257,5982,14355
2.504679,-2224,6512,15927
2.505879,-2015,7472,18644
2.507080,-1428,8039,21166
2.508280,-984,9196,22342
2.509481,116,10314,24298
2.510681,1223,10876,25704
2.511882,2074,11928,26447
2.513082,2335,12614,26822
2.514283,2475,12816,27030
2.515483,2705,13126,26583
2.516684,2444,13392,25780
2.517884,1947,12498,23042
2.519085,1020,12296,19593
2.520285,646,12176,16794
2.521486,406,11385,16039
2.522686,-291,10891,14402
2.523886,-1189,10058,12280
2.525087,-1647,9324,11025
2.553015,-2514,8486,8660
2.554215,-3402,8038,6605
2.555416,-4290,7121,4564
2.556616,-4459,6179,3425
2.557817,-4953,5701,1421
2.559017,-5302,4849,-569
2.560217,-5512,3905,-1491
2.561418,-5837,2917,-3178
2.562618,-6041,2616,-4911
2.563819,-6048,1861,-6577
2.565019,-6134,1055,-7394
2.566220,-6127,638,-8910
2.567420,-5978,-78,-10473
2.568621,-5860,-875,-11321
2.569821,-5508,-1478,-13052
2.571022,-5104,-1802,-14408
2.572222,-4639,-2405,-14996
2.573423,-4397,-2933,-16124
2.574623,-3936,-3199,-17307
2.575824,-3472,-3689,-18309
2.620962,-3281,-4142,-18765
2.622162,-2840,-4566,-19611
2.623362,-2450,-4651,-20458
2.624563,-2232,-4904,-20857
2.625763,-1816,-5141,-21521
2.626964,-1378,-5227,-22078
2.628164,-1029,-5404,-22412
2.629365,-920,-5494,-22471
2.630565,-723,-5499,-22356
2.631766,-683,-5474,-21535
2.632966,-798,-5331,-20764
2.634167,-959,-5039,-18813
2.635367,-934,-4813,-17412
2.636568,-1084,-4424,-16258
2.637768,-1347,-4194,-15512
2.638969,-1727,-3999,-14309
2.640169,-1873,-3505,-13337
2.641370,-1964,-3127,-12909
2.642570,-2208,-2691,-12151
2.643771,-2392,-2485,-11346
2.621104,-2510,-2050,-10355
2.622304,-2583,-1664,-10078
2.623505,-2702,-1448,-9373
2.624705,-2752,-1005,-8747
2.625906,-2775,-547,-8418
2.627106,-2738,-61,-7856
2.628307,-2642,185,-7264
2.629507,-2613,637,-6465
2.630708,-2588,1083,-6296
2.631908,-2394,1324,-5548
2.633109,-2129,1824,-4777
2.634309,-1953,2302,-4428
2.635510,-1496,2837,-3586
2.636710,-1021,3232,-2310
2.637910,-903,3992,26
2.639111,-1060,4829,1940
2.640311,-1623,5193,6386
2.641512,-2005,5880,10837
2.642712,-1992,6551,12722
2.643913,-1636,7185,15504
2.668534,-1111,7677,17584
2.669735,-334,8492,19223
2.670935,118,9271,20315
2.672136,950,9598,21960
2.673336,1724,10338,23305
2.674537,2057,11144,23753
2.675737,2611,11714,24228
2.676938,2815,11775,24221
2.678138,2754,11801,23977
2.679338,2434,11515,22287
2.680539,1769,11142,19444
2.681739,1307,10813,16646
2.682940,1180,10339,15727
2.684140,840,9954,14419
2.685341,232,9170,12704
2.686541,-128,8415,11677
2.687742,-900,7714,9496
2.688942,-1676,7303,7442
2.690143,-2426,6381,5425
2.691343,-2767,5583,4550
2.718712,-3316,5214,2424
2.719912,-3740,4451,435
2.721113,-3882,3749,-496
2.722313,-4117,2995,-2070
2.723514,-4318,2390,-3614
2.724714,-4403,1989,-5256
2.725914,-4592,1247,-6188
2.727115,-4721,927,-7746
2.728315,-4692,287,-9374
2.729516,-4604,-299,-10188
2.730716,-4381,-882,-11859
2.731917,-4057,-1130,-13306
2.733117,-3568,-1560,-14424
2.734318,-3375,-2034,-15041
2.735518,-2984,-2230,-16204
2.736719,-2595,-2675,-17285
2.737919,-2353,-3033,-17760
2.739120,-1950,-3471,-18603
2.740320,-1614,-3544,-19367
2.741521,-1191,-3776,-19687
2.743972,-1095,-3975,-20235
2.745173,-636,-4050,-20614
2.746373,-321,-4189,-20909
2.747574,-222,-4324,-21004
2.748774,-192,-4350,-20953
2.749975,-344,-4303,-19982
2.751175,-719,-4113,-19139
2.752376,-581,-3861,-17366
2.753576,-589,-3659,-16084
2.754777,-793,-3391,-14879
2.755977,-909,-3113,-14318
2.757178,-1081,-2678,-13258
2.758378,-1211,-2565,-12202
2.759578,-1298,-2200,-11677
2.760779,-1544,-1812,-10620
2.761979,-1768,-1609,-9722
2.763180,-1922,-1283,-8778
2.764380,-1978,-938,-8485
2.765581,-2022,-715,-7762
2.766781,-1975,-313,-7162
2.793984,-1931,70,-6886
2.795184,-1826,514,-6458
2.796385,-1427,738,-6224
2.797585,-783,1213,-6084
2.798786,-373,1728,-5782
2.799986,394,1986,-5135
2.801187,816,2537,-3636
2.802387,839,3185,-2340
2.803588,404,3735,1124
2.804788,-383,4036,5134
2.805989,-977,4736,8644
2.807189,-936,5531,10044
2.808390,-766,5899,12226
2.809590,-411,6729,14042
2.810791,-147,7519,14782
2.811991,423,8416,16189
2.813192,1127,8692,17336
2.814392,2001,9449,17958
2.815593,2132,10032,18101
2.816793,2570,10225,18065
2.839124,2809,10522,17548
2.840325,2804,10524,16948
2.841525,2586,10040,15079
2.842726,2222,9778,12762
2.843926,1854,9450,11761
2.845127,1935,8841,10491
2.846327,1679,8532,9441
2.847528,1362,7864,7796
2.848728,1158,7176,6872
2.849929,722,6614,5186
2.851129,234,6199,3648
2.852330,-291,5550,2890
2.853530,-426,4946,1378
2.854730,-662,4629,-181
2.855931,-829,4061,-1657
2.857131,-872,3418,-2302
2.858332,-908,2586,-3719
2.859532,-839,2447,-5084
2.860733,-755,1911,-5712
2.861933,-574,1395,-6777
2.882136,-409,1116,-7630
2.883337,-293,647,-8258
2.884537,-275,170,-8703
2.885738,-207,-13,-9346
2.886938,-119,-378,-9946
2.888139,-52,-723,-10227
2.889339,112,-988,-10804
2.890540,184,-1093,-11365
2.891740,288,-1320,-11859
2.892941,395,-1521,-12055
2.894141,646,-1565,-12403
2.895342,978,-1676,-12548
2.896542,1107,-1776,-12490
2.897743,1248,-1864,-12121
2.898943,1225,-1914,-11513
2.900144,1180,-1916,-10910
2.901344,1077,-1809,-10342
2.902545,944,-1760,-9428
2.903745,821,-1591,-8592
2.904945,749,-1423,-8247
2.927176,736,-1051,-7723
2.928377,764,-1081,-7134
2.929577,1023,-823,-6580
2.930778,799,-527,-6253
2.931978,809,-373,-5725
2.933179,837,-52,-5234
2.934379,859,296,-4977
2.935580,940,722,-4507
2.936780,998,775,-4123
2.937981,986,1103,-3911
2.939181,964,1410,-3453
2.940381,955,1502,-3043
2.941582,905,1739,-2766
2.942782,962,1995,-2742
2.943983,932,2062,-2657
2.945183,887,2249,-2571
2.946384,897,2460,-2591
2.947584,970,2535,-2792
2.948785,1007,2543,-3161
2.949985,1015,2493,-3495
2.927353,1001,2469,-3637
2.928554,985,2455,-3937
2.929754,969,2425,-4225
2.930954,942,2351,-4389
2.932155,925,2222,-4774
2.933355,905,2181,-5244
2.934556,881,2068,-5718
2.935756,856,1924,-5982
2.936957,788,1848,-6456
2.938157,738,1696,-6927
2.939358,723,1543,-7163
2.940558,629,1403,-7587
2.941759,540,1331,-7923
2.942959,480,1242,-8352
2.944160,449,1122,-8391
2.945360,437,1066,-8637
2.946561,440,996,-8736
2.947761,445,949,-8786
2.948962,440,960,-8859
2.950162,439,929,-8837
2.977067,404,925,-8781
2.978268,416,930,-8662
2.979468,423,933,-8522
2.980669,500,948,-8261
2.981869,541,945,-8122
2.983070,650,980,-7868
2.984270,878,1005,-7471
2.985471,1241,1096,-6865
2.986671,1200,1163,-6344
2.987872,1411,1225,-5561
2.989072,1648,1356,-4586
2.990273,1753,1520,-3976
2.991473,1993,1594,-2439
2.992673,2122,1822,-492
2.993874,1854,2104,711
2.995074,1894,2401,3497
2.996275,1811,2612,6503
2.997475,1941,2878,9252
2.998676,1976,3088,10517
2.999876,2043,3472,13003
3.002692,2216,3584,15427
3.003892,2313,3992,16618
3.005093,2715,4532,18625
3.006293,3009,4850,20333
3.007494,3175,5711,21801
3.008694,3189,6638,22533
3.009895,3110,7618,23685
3.011095,3551,8077,24623
3.012296,3470,9131,24594
3.013496,2577,9944,23527
3.014696,1235,9962,21005
3.015897,-127,9776,17946
3.017097,-589,10063,16685
3.018298,-1115,10111,15044
3.019498,-1694,9759,13847
3.020699,-2044,9154,13112
3.021899,-3022,8853,11309
3.023100,-3955,8612,9171
3.024300,-5123,7940,7224
3.025501,-5530,7408,6281
3.050004,-6378,7056,4208
3.051205,-7215,6330,2269
3.052405,-7412,5749,1290
3.053606,-8235,5160,-676
3.054806,-8942,4629,-2580
3.056007,-9354,3914,-4517
3.057207,-9436,3054,-5532
3.058408,-9736,2690,-7382
3.059608,-9949,1833,-9106
3.060809,-9896,1090,-9905
3.062009,-9901,394,-11464
3.063210,-9690,25,-13106
3.064410,-9263,-640,-14760
3.065611,-9240,-1278,-15449
3.066811,-8747,-1594,-17000
3.068012,-8174,-2223,-18436
3.069212,-7869,-2757,-19116
3.070413,-7017,-3272,-20246
3.071613,-6206,-3516,-21342
3.072814,-5577,-4001,-21806
3.095713,-5158,-4344,-22558
3.096913,-4516,-4610,-23105
3.098114,-4031,-5022,-23718
3.099314,-3856,-5389,-24048
3.100515,-3616,-5834,-24510
3.101715,-3325,-5891,-24750
3.102916,-2914,-6006,-24845
3.104116,-2773,-5968,-24806
3.105317,-2590,-5988,-23856
3.106517,-2726,-5900,-22155
3.107718,-2662,-5594,-21122
3.108918,-2512,-5218,-19469
3.110119,-2695,-5209,-18141
3.111319,-2944,-4905,-17431
3.112519,-3427,-4501,-15856
3.113720,-3776,-4251,-14464
3.114920,-4160,-3746,-13112
3.116121,-4367,-3271,-12656
3.117321,-4738,-3049,-11516
3.118522,-5050,-2570,-10596
3.143108,-5148,-2071,-10169
3.144308,-5242,-1584,-9423
3.145509,-5221,-1374,-8782
3.146709,-5130,-962,-8318
3.147910,-5082,-588,-8182
3.149110,-5021,-433,-7810
3.150311,-5028,-92,-7253
3.151511,-5001,202,-6987
3.152712,-5007,495,-6426
3.153912,-4962,629,-5954
3.155113,-4940,914,-5441
3.156313,-4865,1173,-5235
3.157513,-4762,1315,-4625
3.158714,-4706,1586,-3970
3.159914,-4658,1783,-3651
3.161115,-4470,1871,-3201
3.162315,-4041,2125,-2782
3.163516,-3557,2456,-2265
3.164716,-3295,2806,-1694
3.165917,-2875,2993,-334
3.189227,-2658,3360,1634
3.190427,-2617,3767,2880
3.191628,-2605,4193,5825
3.192828,-2484,4553,9132
3.194029,-2672,4821,10989
3.195229,-2849,5136,14883
3.196430,-2372,5436,18210
3.197630,-1598,6052,20727
3.198831,-1173,6649,21832
3.200031,-281,7215,23875
3.201232,618,7608,25696
3.202432,1617,8297,26393
3.203633,2008,9051,27187
3.204833,2612,9386,27126
3.206033,2871,9951,26661
3.207234,2826,10339,26294
3.208434,2553,10507,24908
3.209635,2174,10491,22612
3.210835,1923,10279,21481
3.212036,1628,10334,19833
3.189379,1108,10186,18563
3.190580,259,9637,17405
3.191780,-212,9223,16222
3.192980,-1067,9041,14231
3.194181,-2044,8482,12437
3.195381,-2558,7920,11592
3.196582,-3528,7197,9772
3.197782,-4739,6983,7903
3.198983,-5504,6447,6043
3.200183,-5808,5847,4880
3.201384,-6455,5481,2878
3.202584,-7256,4666,1219
3.203785,-7523,4043,388
3.204985,-7915,3273,-1427
3.206186,-8312,2906,-3276
3.207386,-8449,2304,-4968
3.208587,-8634,1644,-5969
3.209787,-8753,1282,-7643
3.210988,-8879,494,-9408
3.212188,-8831,-44,-10263
3.237442,-8541,-264,-11929
3.238643,-8236,-803,-13505
3.239843,-8108,-1336,-14976
3.241044,-7889,-1807,-15558
3.242244,-7597,-2035,-16944
3.243445,-7107,-2463,-18268
3.244645,-6789,-2816,-18999
3.245846,-6173,-3287,-20173
3.247046,-5543,-3367,-21264
3.248247,-4701,-3644,-21743
3.249447,-4557,-3936,-22557
3.250648,-3981,-4035,-23312
3.251848,-3537,-4326,-23773
3.253049,-3394,-4573,-24010
3.254249,-3087,-4657,-24420
3.255450,-2850,-4765,-24704
3.256650,-2705,-4709,-24744
3.257851,-2475,-4656,-24572
3.259051,-2639,-4618,-23204
3.260251,-2853,-4431,-21106
3.282251,-2777,-4067,-20235
3.283452,-2696,-3628,-18913
3.284652,-2962,-3660,-17639
3.285853,-3139,-3338,-16282
3.287053,-3402,-2926,-15642
3.288254,-3713,-2718,-14497
3.289454,-4043,-2308,-13149
3.290655,-4248,-1971,-12742
3.291855,-4576,-1766,-11728
3.293055,-4804,-1374,-10863
3.294256,-4877,-966,-10406
3.295456,-5029,-540,-9642
3.296657,-5048,-315,-8998
3.297857,-5014,82,-8480
3.299058,-4980,437,-8209
3.300258,-4818,660,-7680
3.301459,-4720,965,-7143
3.302659,-4646,1263,-6867
3.303860,-4157,1639,-6448
3.305060,-3624,1780,-6108
3.329825,-3097,2068,-5585
3.331026,-2902,2475,-4941
3.332226,-2620,2729,-3277
3.333426,-2640,3156,-1052
3.334627,-2739,3579,259
3.335827,-2904,4027,2855
3.337028,-2938,4148,5371
3.338228,-2632,4574,7583
3.339429,-2644,4983,8939
3.340629,-2294,5184,11719
3.341830,-1754,5592,14648
3.343030,-1407,5982,16098
3.344231,-721,6159,18773
3.345431,292,6453,21138
3.346632,1254,6675,22207
3.347832,1387,7051,23925
3.349033,1736,7182,25175
3.350233,2127,7539,25871
3.351434,2289,8051,25990
3.352634,2545,8620,25829
3.376068,2687,9066,24975
3.377268,2456,9584,24090
3.378468,2004,9541,21583
3.379669,1526,9650,19134
3.380869,1317,9748,17394
3.382070,1089,9319,16720
3.383270,253,8712,15341
3.384471,-646,8473,13427
3.385671,-1112,7948,12409
3.386872,-2038,7400,10531
3.388072,-3009,7068,8618
3.389273,-3894,6465,6787
3.390473,-4338,5912,5790
3.391674,-4924,5680,3808
3.392874,-5448,5123,1841
3.394075,-5852,4404,996
3.395275,-6213,3745,-746
3.396476,-6574,3470,-2464
3.397676,-7002,2831,-4282
3.398877,-7124,2122,-4995
3.422140,-7419,1836,-6709
3.423341,-7433,1250,-8584
3.424541,-7482,607,-9448
3.425742,-7263,-13,-11302
3.426942,-7162,-301,-13025
3.428142,-6754,-817,-14622
3.429343,-6630,-1317,-15294
3.430543,-6150,-1547,-16510
3.431744,-5717,-1973,-17674
3.432944,-5487,-2401,-18237
3.434145,-5013,-2801,-19397
3.435345,-4478,-2954,-20429
3.436546,-3964,-3282,-21431
3.437746,-3728,-3595,-21797
3.438947,-3308,-3735,-22590
3.440147,-2848,-3909,-23201
3.441348,-2637,-4045,-23433
3.442548,-2242,-4057,-23778
3.443749,-1920,-4054,-24036
3.444949,-1788,-3992,-24047
3.466604,-1737,-4035,-23328
3.467805,-2097,-4029,-21580
3.469005,-2227,-3857,-19684
3.470206,-2205,-3556,-18984
3.471406,-2377,-3505,-17666
3.472607,-2804,-3336,-16382
3.473807,-3248,-3107,-15700
3.475008,-3333,-2756,-14508
3.476208,-3652,-2579,-13546
3.477409,-4010,-2258,-12477
3.478609,-4194,-1967,-12017
3.479809,-4502,-1540,-11255
3.481010,-4648,-1424,-10556
3.482210,-4622,-1097,-10270
3.483411,-4586,-757,-9767
3.484611,-4542,-581,-9336
3.485812,-4414,-227,-8944
3.487012,-4334,48,-8733
3.488213,-4275,179,-8324
3.489413,-4136,540,-7786
3.511143,-4027,900,-7477
3.512343,-3813,1229,-6956
3.513544,-3492,1390,-6574
3.514744,-3064,1759,-6069
3.515945,-2775,2198,-5563
3.517145,-2182,2471,-4322
3.518346,-1925,3009,-2392
3.519546,-1960,3536,-1058
3.520747,-2467,3899,2438
3.521947,-3118,4031,6322
3.523148,-3397,4234,10034
3.524348,-3442,4666,11674
3.525549,-2928,4864,14379
3.526749,-2328,5224,16859
3.527950,-1657,5542,18180
3.529150,-707,6009,20640
3.530351,146,6327,22859
3.531551,989,6877,24455
3.532752,1126,7394,24960
3.533952,1754,7736,25939
3.511322,2180,8449,26755
3.512522,2311,9242,27026
3.513723,2523,10221,26686
3.514923,2233,10428,24515
3.516124,1776,10402,22990
3.517324,1356,10404,19967
3.518525,1216,10498,17564
3.519725,793,10046,16050
3.520926,443,9353,15406
3.522126,-347,8856,13646
3.523327,-1213,8513,11494
3.524527,-1891,7937,10442
3.525728,-2459,7283,8576
3.526928,-3410,6904,6687
3.528129,-4163,6250,4753
3.529329,-4432,5639,3743
3.530530,-4928,5056,1847
3.531730,-5302,4745,160
3.532930,-5482,4030,-654
3.534131,-5949,3311,-2367
3.557444,-6221,2993,-4088
3.558644,-6365,2323,-6012
3.559844,-6489,1640,-6844
3.561045,-6427,812,-8561
3.562245,-6430,731,-10048
3.563446,-6406,96,-10835
3.564646,-6344,-502,-12275
3.565847,-6174,-752,-13686
3.567047,-5882,-1197,-14855
3.568248,-5758,-1750,-15716
3.569448,-5406,-1961,-16906
3.570649,-4970,-2320,-18204
3.571849,-4713,-2646,-18787
3.573050,-4225,-3029,-19842
3.574250,-3850,-3183,-20740
3.575451,-3441,-3434,-21710
3.576651,-3226,-3636,-21994
3.577852,-2725,-3695,-22632
3.579052,-2275,-3742,-23169
3.580253,-2062,-3790,-23379
3.606031,-1713,-3754,-23624
3.607231,-1437,-3713,-23513
3.608432,-1371,-3815,-22362
3.609632,-1669,-3839,-21558
3.610832,-1851,-3729,-19538
3.612033,-1836,-3369,-18076
3.613233,-1951,-3197,-17461
3.614434,-2469,-2883,-16227
3.615634,-2947,-2901,-14990
3.616835,-3130,-2497,-14449
3.618035,-3386,-2088,-13556
3.619236,-3580,-1959,-12696
3.620436,-3776,-1724,-12079
3.621637,-3837,-1436,-11763
3.622837,-3913,-1051,-11109
3.624038,-3905,-1042,-10456
3.625238,-3924,-737,-10210
3.626439,-3916,-481,-9634
3.627639,-3911,-323,-9084
3.628840,-3872,-10,-8535
3.655848,-3811,335,-8283
3.657049,-3571,754,-7734
3.658249,-3354,820,-7175
3.659450,-3192,1158,-6846
3.660650,-2752,1598,-5959
3.661851,-2350,1822,-4699
3.663051,-2130,2286,-2992
3.664252,-2126,2715,-1851
3.665452,-2377,2902,1225
3.666653,-2758,3259,4997
3.667853,-3049,3449,6799
3.669054,-3374,3728,10164
3.670254,-2975,3982,12683
3.671455,-2168,4555,14750
3.672655,-1754,5095,15787
3.673856,-723,5337,18360
3.675056,151,5785,20850
3.676257,568,6395,21990
3.677457,1316,6852,23689
3.678658,1783,7107,24895
3.711359,2104,7697,25919
3.712560,2268,8523,26206
3.713760,2504,8890,26442
3.714961,2549,9818,25546
3.716161,2431,10417,24438
3.717362,1775,10146,21602
3.718562,1109,10170,18930
3.719763,1008,10281,16794
3.720963,820,9741,16095
3.722164,138,9391,14659
3.723364,-731,8914,12903
3.724565,-1368,8342,11864
3.725765,-2146,7718,9926
3.726966,-2726,7465,7684
3.728166,-3692,6663,5977
3.729367,-4086,5950,5011
3.730567,-4847,5616,3034
3.731768,-5312,4970,1108
3.732968,-5482,4321,152
3.734169,-5768,3713,-1577
3.711528,-6040,3260,-3172
3.712728,-6394,2602,-3949
3.713929,-6211,1997,-5569
3.715129,-6328,1707,-7233
3.716330,-6314,1154,-8746
3.717530,-6369,523,-9464
3.718731,-6329,-65,-10960
3.719931,-6169,-360,-12579
3.721132,-6052,-842,-13324
3.722332,-5703,-1289,-14656
3.723533,-5317,-1551,-15776
3.724733,-4962,-1975,-16858
3.725934,-4742,-2275,-17390
3.727134,-4252,-2685,-18481
3.728334,-3830,-2795,-19385
3.729535,-3691,-3040,-19816
3.730735,-3346,-3192,-20500
3.731936,-2951,-3294,-21143
3.733136,-2598,-3446,-21684
3.734337,-2451,-3552,-22013
3.759119,-2142,-3587,-22421
3.760319,-1885,-3598,-22651
3.761520,-1783,-3546,-22604
3.762720,-1749,-3520,-22108
3.763921,-2000,-3473,-20638
3.765121,-2135,-3302,-18936
3.766322,-2070,-2938,-17997
3.767522,-1954,-2769,-16800
3.768723,-2198,-2666,-15703
3.769923,-2342,-2476,-15184
3.771124,-2602,-2202,-14120
3.772324,-2858,-2035,-13120
3.773525,-3262,-1698,-12103
3.774725,-3297,-1447,-11617
3.775926,-3488,-1303,-10928
3.777126,-3518,-1019,-10394
3.778327,-3501,-837,-10150
3.779527,-3467,-582,-9644
3.780728,-3428,-453,-9153
3.781928,-3396,-213,-8673
3.759241,-3336,15,-8422
3.760441,-3335,150,-7866
3.761642,-3303,409,-7332
3.762842,-3306,653,-7079
3.764043,-3295,1022,-6561
3.765243,-3173,1018,-6008
3.766444,-2820,1236,-5730
3.767644,-2730,1488,-5303
3.768845,-2200,1623,-4772
3.770045,-1505,2029,-4075
3.771246,-1326,2608,-3464
3.772446,-1175,2818,-1404
3.773647,-1426,3218,1805
3.774847,-1871,3507,3596
3.776048,-1951,3700,6987
3.777248,-2026,3805,9797
3.778449,-1648,4209,12061
3.779649,-1296,4685,13081
3.780850,-629,4932,15287
3.782050,188,5308,17852
3.825415,1028,5696,20537
3.826615,1298,6160,21851
3.827816,1871,6387,23930
3.829016,2277,6781,25149
3.830217,2419,7202,25632
3.831417,2605,7538,26264
3.832618,2651,8283,26477
3.833818,2626,9116,26273
3.835019,2433,9834,24701
3.836219,1741,9776,21776
3.837420,985,9702,19127
3.838620,828,9904,18207
3.839821,484,9797,16748
3.841021,-242,9371,15266
3.842222,-798,8850,14339
3.843422,-1752,8271,12323
3.844623,-2882,7991,10150
3.845823,-3842,7372,8224
3.847024,-4380,6668,7311
3.848224,-5130,6398,5355
3.871211,-5826,5736,3142
3.872411,-6067,5017,2174
3.873612,-6772,4168,504
3.874812,-7405,3900,-1236
3.876013,-7905,3113,-3273
3.877213,-8050,2467,-4369
3.878414,-8145,2084,-6474
3.879614,-8136,1314,-8400
3.880815,-8064,567,-9316
3.882015,-7867,-9,-11106
3.883216,-7500,-364,-12899
3.884416,-7092,-1016,-13756
3.885617,-6912,-1554,-15257
3.886817,-6360,-1812,-16613
3.888018,-5872,-2350,-17819
3.889218,-5595,-2737,-18444
3.890418,-5056,-3216,-19606
3.891619,-4574,-3372,-20609
3.892819,-4309,-3786,-21091
3.894020,-3889,-4031,-21901
3.920629,-3460,-4161,-22699
3.921830,-3067,-4388,-23399
3.923030,-2848,-4523,-23650
3.924230,-2481,-4552,-23996
3.925431,-2145,-4549,-24253
3.926631,-1978,-4503,-24343
3.927832,-1696,-4382,-24163
3.929032,-1879,-4417,-22700
3.930233,-2133,-4329,-20644
3.931433,-2084,-4014,-19726
3.932634,-2008,-3856,-18320
3.933834,-2300,-3716,-16915
3.935035,-2458,-3497,-16237
3.936235,-2796,-3162,-14910
3.937436,-3050,-2964,-13755
3.938636,-3312,-2654,-12674
3.939837,-3458,-2321,-12104
3.941037,-3658,-2146,-11154
3.942238,-3797,-1831,-10296
3.943438,-3781,-1498,-9891
3.946197,-3670,-1149,-9196
3.947397,-3456,-946,-8606
3.948598,-3324,-504,-7785
3.949798,-3058,-111,-7633
3.950999,-2870,102,-6868
3.952199,-2717,533,-5958
3.953400,-2674,1023,-5357
3.954600,-2516,1535,-4239
3.955801,-2231,1747,-3205
3.957001,-1678,2254,-2199
3.958202,-1316,2888,-1620
3.959402,-771,3172,20
3.960603,-695,3767,2838
3.961803,-810,4392,4713
3.963004,-941,4681,8954
3.964204,-1003,4945,12821
3.965405,-855,5226,14585
3.966605,-679,5613,17424
3.967806,-309,5875,19682
3.969006,269,6401,21567
4.000162,643,6920,22331
4.001362,1403,7558,23197
4.002563,1901,7958,23686
4.003763,2035,8568,23979
4.004964,2231,9292,24467
4.006164,2381,9755,23863
4.007365,2183,10381,21443
4.008565,1808,9999,19880
4.009766,1131,9868,17190
4.010966,881,9906,15062
4.012167,657,9103,14389
4.013367,-142,8563,12985
4.014568,-888,8359,10985
4.015768,-1636,7758,8507
4.016969,-2071,7123,7659
4.018169,-2899,6785,5817
4.019370,-3679,6026,3869
4.020570,-4002,5386,2828
4.021770,-4457,4836,758
4.022971,-4673,4501,-1076
4.096685,-4789,3888,-2682
4.097886,-4808,3180,-3556
4.099086,-4886,2909,-5191
4.100287,-5026,2251,-6765
4.101487,-5111,1650,-7543
4.102688,-5218,1021,-8907
4.103888,-5130,761,-10353
4.105088,-5117,60,-11914
4.106289,-5029,-387,-12555
4.107489,-4574,-645,-13959
4.108690,-4070,-1160,-15148
4.109890,-3877,-1588,-15686
4.111091,-3443,-1802,-16680
4.112291,-3028,-2206,-17473
4.113492,-2577,-2559,-18062
4.114692,-2413,-2874,-18358
4.115893,-2081,-3017,-18848
4.117093,-1830,-3318,-19272
4.118294,-1707,-3564,-19424
4.119494,-1554,-3669,-19650
4.096832,-1420,-3900,-19735
4.098032,-1100,-4110,-19766
4.099233,-1183,-4345,-19686
4.100433,-1192,-4489,-19096
4.101634,-1226,-4494,-17774
4.102834,-1176,-4266,-16920
4.104035,-989,-4095,-15286
4.105235,-967,-3770,-14050
4.106436,-969,-3302,-13461
4.107636,-958,-2784,-12130
4.108836,-946,-2477,-10716
4.110037,-1059,-1967,-9391
4.111237,-1155,-1509,-8703
4.112438,-1334,-988,-7391
4.113638,-1432,-818,-6347
4.114839,-1497,-523,-5969
4.116039,-1656,-241,-5192
4.117240,-1682,-89,-4470
4.118440,-1671,213,-3898
4.119641,-1629,506,-3656
4.096925,-1506,684,-3269
4.098125,-1447,913,-3048
4.099326,-1235,1368,-2948
4.100526,-1039,1537,-2925
4.101727,-766,1692,-2922
4.102927,-368,2058,-2965
4.104128,-248,2263,-3055
4.105328,44,2408,-2961
4.106529,360,2608,-2747
4.107729,596,2804,-2646
4.108930,903,2914,-2391
4.110130,1094,2988,-1948
4.111331,1233,3162,-1405
4.112531,1289,3349,-1018
4.113732,1266,3380,-242
4.114932,1298,3575,582
4.116133,1336,3699,919
4.117333,1171,3773,1556
4.118534,1104,3859,2122
4.119734,1114,3965,2367
4.116961,1356,4078,2741
4.118161,1811,4174,3011
4.119362,2245,4333,3321
4.120562,2423,4548,3538
4.121763,2771,4646,4230
4.122963,3007,4889,5167
4.124163,3102,5079,5685
4.125364,3141,5138,6665
4.126564,3156,5093,7536
4.127765,3074,4972,8242
4.128965,2965,4742,8546
4.130166,2797,4697,9220
4.131366,2582,4559,9423
4.132567,2484,4572,9190
4.133767,2299,4543,7926
4.134968,2030,4474,6116
4.136168,1853,4456,4624
4.137369,1849,4383,4145
4.138569,1903,4289,3259
4.139770,1916,4133,2306
4.197358,1875,3921,1881
4.198559,1753,3703,1207
4.199759,1544,3556,676
4.200960,1275,3358,189
4.202160,1212,3176,-125
4.203361,837,3049,-617
4.204561,551,2918,-1102
4.205762,439,2769,-1338
4.206962,207,2598,-1906
4.208163,154,2544,-2645
4.209363,286,2410,-3344
4.210564,447,2273,-3867
4.211764,757,2251,-4325
4.212965,1040,2165,-4498
4.214165,1093,2132,-4413
4.215366,1128,2142,-4039
4.216566,956,2175,-3620
4.217766,630,2228,-3165
4.218967,508,2345,-3182
4.220167,266,2410,-3180
4.225068,-43,2472,-3249
4.226268,-180,2627,-3280
4.227469,-394,2587,-3434
4.228669,-664,2570,-3687
4.229870,-741,2651,-4087
4.231070,-843,2617,-4180
4.232270,-1002,2576,-4508
4.233471,-1026,2534,-4977
4.234671,-1147,2424,-5186
4.235872,-1277,2358,-5555
4.237072,-1309,2207,-5993
4.238273,-1418,2075,-6193
4.239473,-1537,1853,-6640
4.240674,-1509,1778,-7145
4.241874,-1515,1533,-7667
4.243075,-1542,1223,-7955
4.244275,-1452,791,-8474
4.245476,-1364,709,-8913
4.246676,-1358,330,-9112
4.247877,-1295,-106,-9331
4.268818,-1357,-329,-9576
4.270018,-1401,-738,-9828
4.271219,-1391,-1126,-9906
4.272419,-1392,-1349,-10148
4.273620,-1393,-1792,-10425
4.274820,-1378,-2179,-10607
4.276020,-1279,-2587,-11012
4.277221,-1138,-2803,-11501
4.278421,-935,-3158,-12007
4.279622,-843,-3492,-12135
4.280822,-774,-3627,-12075
4.282023,-880,-3817,-11606
4.283223,-943,-3794,-11289
4.284424,-1031,-3668,-10633
4.285624,-1130,-3617,-10184
4.286825,-1175,-3548,-10085
4.288025,-1213,-3473,-9984
4.289226,-1240,-3430,-9871
4.290426,-1270,-3331,-9828
4.291627,-1291,-3198,-9803
4.310564,-1369,-3086,-9781
4.311764,-1464,-3030,-9796
4.312965,-1508,-2908,-9808
4.314165,-1501,-2749,-9853
4.315366,-1421,-2615,-9846
4.316566,-1359,-2377,-9841
4.317767,-1355,-2070,-9856
4.318967,-1376,-1635,-9737
4.320168,-1419,-1503,-9529
4.321368,-1423,-1137,-9437
4.322569,-1385,-728,-9249
4.323769,-1372,-541,-8875
4.324970,-1387,-172,-8475
4.326170,-1388,217,-8257
4.327371,-1358,630,-7883
4.328571,-1239,785,-7335
4.329771,-1207,1226,-7171
4.330972,-1163,1525,-6571
4.332172,-951,1686,-5946
4.333373,-989,1976,-4830
4.356240,-1085,2255,-4069
4.357441,-1253,2677,-2429
4.358641,-1332,2792,-1003
4.359842,-1350,3208,-427
4.361042,-1182,3619,593
4.362243,-872,3837,1628
4.363443,-519,4255,2938
4.364644,-385,4723,3800
4.365844,-114,4951,5850
4.367045,-25,5282,8009
4.368245,38,5568,9035
4.369446,446,6134,10875
4.370646,896,6337,12298
4.371847,1682,6859,13775
4.373047,1889,6886,14416
4.374248,2402,6930,16479
4.375448,2619,6809,18798
4.376648,2311,6739,19822
4.377849,2347,7174,21385
4.379049,2555,7584,21958
4.402462,2316,7931,21559
4.403662,2216,8659,21294
4.404863,1721,9005,19545
4.406063,821,8954,16937
4.407264,512,9194,15712
4.408464,232,9231,13993
4.409665,-109,8977,12910
4.410865,-647,8466,11497
4.412066,-1073,7952,10490
4.413266,-1861,7721,8724
4.414467,-2520,7297,7095
4.415667,-2935,6711,6333
4.416868,-3790,6174,4612
4.418068,-4494,5936,2775
4.419269,-5080,5374,1861
4.420469,-5301,4866,255
4.421670,-5625,4594,-1502
4.422870,-5869,4033,-3215
4.424071,-6116,3455,-4036
4.425271,-6349,2882,-5654
4.402629,-6486,2509,-7194
4.403829,-6567,1877,-7989
4.405030,-6581,1249,-9472
4.406230,-6529,915,-11066
4.407431,-6306,298,-12517
4.408631,-6226,-401,-13282
4.409832,-5982,-930,-14548
4.411032,-5657,-1279,-15805
4.412233,-5513,-1912,-16396
4.413433,-5165,-2398,-17461
4.414634,-4736,-2669,-18549
4.415834,-4345,-3227,-19520
4.417035,-4151,-3697,-20004
4.418235,-3752,-3904,-20890
4.419436,-3368,-4343,-21770
4.420636,-3167,-4739,-22202
4.421837,-2761,-5030,-22915
4.423037,-2492,-5135,-23224
4.424237,-2287,-5249,-23534
4.425438,-2170,-5192,-23213
4.447263,-2156,-5229,-22511
4.448463,-2445,-5201,-20920
4.449664,-2515,-4979,-20036
4.450864,-2535,-4636,-18534
4.452065,-2697,-4548,-17337
4.453265,-2820,-4277,-16304
4.454466,-3239,-4034,-15645
4.455666,-3532,-3834,-14608
4.456867,-3724,-3392,-13596
4.458067,-3857,-3013,-13080
4.459268,-4062,-2602,-12075
4.460468,-4236,-2390,-11195
4.461669,-4239,-1976,-10343
4.462869,-4322,-1584,-10082
4.464070,-4398,-1366,-9448
4.465270,-4299,-839,-8817
4.466471,-4268,-377,-8593
4.467671,-4037,92,-8046
4.468872,-3690,267,-7569
4.470072,-3354,591,-7255
4.491384,-3559,921,-6434
4.492584,-3587,1097,-5324
4.493785,-3658,1444,-4077
4.494985,-3672,1754,-3384
4.496186,-3805,2194,-2292
4.497386,-3914,2188,-1156
4.498586,-3757,2432,-132
4.499787,-3621,2749,289
4.500987,-3268,2877,1160
4.502188,-2878,3157,1927
4.503388,-2647,3446,2272
4.504589,-2026,3633,2890
4.505789,-1253,4090,3703
4.506990,-842,4638,4333
4.508190,-215,5242,6410
4.509391,64,5499,9611
4.510591,140,5849,13683
4.511792,205,5911,15620
4.512992,423,5936,18878
4.514193,701,6120,21345
4.554589,894,6361,22284
4.555789,1329,6598,24096
4.556990,2204,6823,25834
4.558190,2365,7154,27349
4.559391,2386,7913,27920
4.560591,2350,8302,28451
4.561792,1835,9077,27990
4.562992,1757,10294,27099
4.564193,900,10511,23964
4.565393,-54,10480,20748
4.566594,-537,10683,18875
4.567794,-852,10369,18190
4.568995,-1799,10133,16947
4.570195,-2783,9672,15187
4.571395,-3346,9211,14160
4.572596,-4393,8690,12128
4.573796,-5641,8330,10135
4.574997,-7057,7588,8037
4.576197,-7525,6840,6823
4.577398,-8714,6438,4570
4.601923,-9663,5688,2195
4.603123,-10089,4881,954
4.604324,-10703,4237,-1376
4.605524,-11136,3694,-3548
4.606725,-11303,2871,-4636
4.607925,-11474,2069,-6727
4.609126,-11523,1689,-8805
4.610326,-11501,842,-10727
4.611527,-11382,159,-11618
4.612727,-10984,-750,-13457
4.613928,-10584,-1003,-15215
4.615128,-10048,-1730,-16063
4.616329,-9765,-2337,-17512
4.617529,-9046,-2708,-19033
4.618730,-8321,-3291,-20476
4.619930,-7980,-3910,-21177
4.621131,-7210,-4454,-22361
4.622331,-6468,-4692,-23436
4.623532,-6084,-5120,-23949
4.624732,-5320,-5515,-24722
4.648958,-4616,-5684,-25306
4.650159,-4195,-6085,-25788
4.651359,-3944,-6309,-26006
4.652560,-3435,-6405,-26345
4.653760,-3022,-6561,-26431
4.654960,-2847,-6775,-26359
4.656161,-2818,-6863,-25591
4.657361,-3047,-6752,-23597
4.658562,-2928,-6320,-21070
4.659762,-2878,-5803,-20143
4.660963,-3072,-5551,-18450
4.662163,-3423,-5146,-16900
4.663364,-3573,-4805,-16177
4.664564,-3835,-4374,-14921
4.665765,-4105,-4138,-13552
4.666965,-4430,-3737,-12296
4.668166,-4627,-3336,-11739
4.669366,-4968,-3139,-10720
4.670567,-5150,-2757,-9779
4.671767,-5175,-2321,-9344
4.674514,-5227,-1914,-8560
4.675715,-5204,-1700,-7845
4.676915,-5267,-1216,-7029
4.678116,-5040,-692,-6870
4.679316,-4857,-467,-6353
4.680517,-4533,51,-5853
4.681717,-4343,539,-5535
4.682918,-4010,1053,-4811
4.684118,-3707,1313,-3942
4.685319,-3370,1759,-3451
4.686519,-3440,2252,-2304
4.687720,-3177,2498,-1094
4.688920,-2788,3043,81
4.690120,-2562,3659,629
4.691321,-2007,4535,2113
4.692521,-1473,4896,4022
4.693722,-1391,5633,5308
4.694922,-1354,6176,8312
4.696123,-1474,6379,11622
4.697323,-1011,6983,14684
4.674669,-895,7406,15933
4.675870,-114,8010,18035
4.677070,357,7999,19681
4.678271,456,8315,20441
4.679471,1064,8758,21660
4.680672,1471,8979,22412
4.681872,2028,9550,22564
4.683073,2140,9868,22376
4.684273,2479,10023,21325
4.685474,2445,10164,19116
4.686674,2138,9877,17741
4.687875,1666,9817,15334
4.689075,1375,9703,13883
4.690276,955,9169,12597
4.691476,635,8610,11954
4.692677,-96,8320,10334
4.693877,-875,7742,8638
4.695078,-1273,7082,7773
4.696278,-2132,6406,6000
4.697479,-2793,6085,4152
4.729004,-3074,5366,2208
4.730205,-3523,4673,1254
4.731405,-3918,4277,-548
4.732606,-4142,3588,-2286
4.733806,-4254,2916,-3112
4.735007,-4279,2335,-4866
4.736207,-4226,2012,-6355
4.737408,-4164,1434,-7826
4.738608,-4089,875,-8447
4.739809,-4000,623,-9652
4.741009,-3962,83,-10781
4.742210,-3938,-481,-11359
4.743410,-3971,-981,-12538
4.744611,-3766,-1165,-13615
4.745811,-3438,-1668,-14113
4.747012,-3458,-2091,-15138
4.748212,-3196,-2272,-16045
4.749413,-2867,-2657,-16849
4.750613,-2689,-2978,-17249
4.751814,-2316,-3143,-17962
4.775311,-1987,-3453,-18614
4.776511,-1580,-3716,-18844
4.777712,-1556,-3975,-19199
4.778912,-1349,-4109,-19445
4.780113,-1200,-4334,-19502
4.781313,-1171,-4486,-19419
4.782514,-1117,-4540,-18885
4.783714,-1214,-4469,-17587
4.784915,-1200,-4170,-16737
4.786115,-1110,-3777,-15089
4.787316,-1115,-3580,-13729
4.788516,-1213,-3142,-12519
4.789717,-1236,-2667,-11927
4.790917,-1199,-2417,-10825
4.792118,-1240,-1973,-9786
4.793318,-1287,-1669,-9254
4.794518,-1442,-1317,-8272
4.795719,-1584,-1178,-7425
4.796919,-1743,-870,-6513
4.798120,-1808,-529,-6238
4.801970,-1917,-387,-5441
4.803170,-1960,-48,-4869
4.804371,-1958,312,-4660
4.805571,-1946,648,-4370
4.806772,-1888,803,-4142
4.807972,-1825,1102,-4094
4.809173,-1791,1355,-4103
4.810373,-1702,1467,-4235
4.811574,-1546,1644,-4493
4.812774,-1457,1771,-4591
4.813975,-1286,1827,-4743
4.815175,-1097,1836,-4920
4.816376,-785,1823,-5019
4.817576,-915,1856,-5095
4.818777,-1002,1835,-5110
4.819977,-1000,1736,-5013
4.821177,-894,1740,-4943
4.822378,-645,1758,-4842
4.823578,-457,1753,-4810
4.824779,-107,1733,-4801
4.856798,-105,1783,-4725
4.857998,186,1798,-4413
4.859199,498,1896,-3873
4.860399,622,2039,-3512
4.861600,754,2096,-2536
4.862800,847,2288,-1352
4.864001,1173,2534,-724
4.865201,1180,2902,525
4.866402,1547,3112,1927
4.867602,1768,3485,3956
4.868803,1822,3963,5333
4.870003,1885,4465,8268
4.871204,2028,4607,10944
4.872404,2040,4892,12205
4.873605,2011,5212,14689
4.874805,2070,5397,17033
4.876006,2304,5920,19077
4.877206,2484,6497,19910
4.878406,2740,7063,21081
4.879607,2877,7554,21879
4.903904,2856,8314,22220
4.905105,2691,9038,22550
4.906305,2340,9486,21999
4.907506,1671,10109,20219
4.908706,1232,10162,19090
4.909906,352,10082,16855
4.911107,-356,10008,15250
4.912307,-699,9584,14607
4.913508,-1591,9016,13265
4.914708,-2609,8699,11443
4.915909,-3584,8125,9368
4.917109,-4016,7504,8383
4.918310,-4969,7127,6465
4.919510,-5868,6412,4450
4.920711,-6192,5834,3342
4.921911,-6856,5110,1354
4.923112,-7385,4741,-575
4.924312,-7695,4060,-2331
4.925513,-8087,3280,-3388
4.926713,-8558,2882,-5343
4.927849,-8761,2031,-7301
4.929049,-8776,1231,-8242
4.930250,-8580,372,-10284
4.931450,-8334,107,-12096
4.932651,-8006,-707,-13685
4.933851,-7847,-1367,-14405
4.935052,-7324,-1744,-15932
4.936252,-6715,-2288,-17267
4.937453,-6404,-2757,-17906
4.938653,-5814,-3259,-18926
4.939854,-5309,-3432,-19809
4.941054,-4792,-3778,-20244
4.942255,-4634,-4123,-20923
4.943455,-4289,-4273,-21476
4.944656,-3929,-4575,-21930
4.945856,-3757,-4894,-22224
4.947057,-3380,-5205,-22646
4.948257,-3043,-5359,-22980
4.949458,-2600,-5665,-23149
4.950658,-2556,-5929,-23338
4.978199,-2443,-6066,-22854
4.979400,-2583,-6076,-21366
4.980600,-2576,-5741,-20365
4.981801,-2435,-5282,-18337
4.983001,-2482,-5153,-16881
4.984202,-2607,-4780,-16293
4.985402,-2888,-4437,-14928
4.986603,-3080,-4264,-13669
4.987803,-3273,-3802,-12674
4.989004,-3381,-3415,-12029
4.990204,-3673,-3234,-10997
4.991405,-3905,-2864,-10089
4.992605,-3982,-2522,-9683
4.993806,-4057,-2080,-8931
4.995006,-4046,-1842,-8205
4.996206,-4112,-1409,-7630
4.997407,-4133,-1026,-7296
4.998607,-4143,-826,-6907
4.999808,-4068,-429,-6605
5.001008,-3936,-82,-6507
4.978366,-3802,294,-6417
4.979566,-3639,427,-6109
4.980767,-3615,680,-5660
4.981967,-3571,924,-5567
4.983168,-3506,1073,-5325
4.984368,-3454,1305,-4980
4.985569,-3438,1549,-4785
4.986769,-3428,1628,-4296
4.987970,-3388,1800,-3838
4.989170,-3304,2018,-3396
4.990371,-3097,2189,-3225
4.991571,-2807,2300,-2868
4.992772,-2470,2470,-2456
4.993972,-2270,2682,-2267
4.995173,-1787,2836,-1570
4.996373,-1279,3307,-412
4.997574,-1118,3840,485
4.998774,-1052,4535,3211
4.999975,-1284,4844,6779
5.001175,-1539,5329,10509
5.023076,-1541,5819,12064
5.024276,-1158,6304,14545
5.025477,-484,6628,16413
5.026677,103,7092,17276
5.027878,571,7607,19054
5.029078,1235,7836,21132
5.030278,1726,8412,23254
5.031479,1926,9066,24189
5.032679,2279,9956,25730
5.033880,2641,10214,26493
5.035080,2690,10836,26635
5.036281,2491,11570,26425
5.037481,1924,11781,24981
5.038682,996,11996,22071
5.039882,596,11973,20689
5.041083,39,11980,18517
5.042283,-736,11553,17280
5.043484,-1206,10914,16595
5.044684,-2418,10175,14799
5.045885,-3513,9805,12453
5.066871,-4655,9032,10311
5.068071,-5319,8000,9410
5.069272,-6531,7597,7377
5.070472,-7660,6631,4994
5.071673,-8141,5816,3805
5.072873,-8847,4913,1497
5.074074,-9444,4422,-621
5.075274,-9973,3597,-2752
5.076475,-10065,2604,-3812
5.077675,-10282,2179,-5915
5.078876,-10389,1226,-7941
5.080076,-10280,284,-8844
5.081277,-10258,-590,-10605
5.082477,-10080,-962,-12476
5.083678,-9941,-1687,-14127
5.084878,-9421,-2425,-15070
5.086079,-8936,-2867,-16583
5.087279,-8412,-3448,-18016
5.088480,-8045,-3988,-18706
5.089680,-7308,-4495,-20140
5.168119,-6552,-4703,-21253
5.169320,-5677,-4991,-21705
5.170520,-5510,-5346,-22613
5.171721,-5002,-5513,-23308
5.172921,-4607,-5810,-23959
5.174121,-4364,-5975,-24277
5.175322,-3929,-6355,-24763
5.176522,-3585,-6338,-25218
5.177723,-3424,-6536,-25541
5.178923,-3070,-6654,-25639
5.180124,-2868,-6674,-25266
5.181324,-3030,-6608,-23566
5.182525,-3142,-6254,-22416
5.183725,-2935,-5748,-20229
5.184926,-2834,-5469,-18705
5.186126,-2912,-5095,-18009
5.187327,-3197,-4729,-16590
5.188527,-3431,-4519,-15310
5.189728,-3609,-3951,-13918
5.190928,-3735,-3438,-13298
5.168263,-4150,-3213,-12022
5.169463,-4491,-2750,-10871
5.170664,-4611,-2252,-10343
5.171864,-4758,-1775,-9291
5.173065,-4847,-1551,-8384
5.174265,-4831,-1127,-7453
5.175466,-4790,-724,-7263
5.176666,-4688,-553,-6712
5.177867,-4512,-264,-6213
5.179067,-4370,63,-6078
5.180268,-3988,402,-5741
5.181468,-3539,609,-5222
5.182669,-3095,991,-4309
5.183869,-3009,1448,-3780
5.185070,-2812,1648,-2563
5.186270,-2670,2068,-1096
5.187471,-2647,2437,-344
5.188671,-2681,2569,1271
5.189872,-2469,2916,2822
5.191072,-2060,3297,3579
5.212639,-1950,3630,5174
5.213840,-1636,3815,7035
5.215040,-1295,4191,9097
5.216241,-1154,4614,10165
5.217441,-641,5238,12127
5.218641,-273,5509,13896
5.219842,655,6440,14743
5.221042,1031,7019,16367
5.222243,1057,7099,17889
5.223443,1928,8105,19334
5.224644,2190,8641,19854
5.225844,2755,9306,20694
5.227045,2744,9533,21558
5.228245,2713,10130,21861
5.229446,2538,10892,21438
5.230646,2318,11106,19184
5.231847,1568,10824,16491
5.233047,1284,10772,15351
5.234248,963,10672,13969
5.235448,475,10238,12911
5.258239,136,9542,12294
5.259440,-358,8938,10497
5.260640,-1059,8653,8623
5.261841,-1880,7922,6733
5.263041,-2334,7083,6004
5.264241,-3173,6698,4183
5.265442,-3743,5994,2193
5.266642,-4000,5317,1168
5.267843,-4475,4520,-537
5.269043,-4883,4149,-2262
5.270244,-5170,3371,-4245
5.271444,-5337,2630,-4957
5.272645,-5365,2269,-6664
5.273845,-5377,1533,-8288
5.275046,-5291,855,-9068
5.276246,-5104,223,-10588
5.277447,-4900,-81,-11890
5.278647,-4535,-639,-13247
5.279848,-4406,-1270,-13659
5.281048,-4122,-1524,-14650
5.258365,-3839,-1958,-15591
5.259565,-3681,-2427,-16029
5.260766,-3540,-2940,-16802
5.261966,-3374,-3138,-17599
5.263167,-3236,-3558,-18023
5.264367,-2967,-3940,-18784
5.265568,-2725,-4100,-19403
5.266768,-2528,-4432,-19923
5.267969,-2401,-4727,-20202
5.269169,-2147,-4868,-20749
5.270370,-1894,-5043,-21042
5.271570,-1726,-5124,-21027
5.272771,-1534,-5139,-20593
5.273971,-1602,-5090,-19197
5.275172,-1622,-4852,-17227
5.276372,-1550,-4508,-16367
5.277573,-1430,-4101,-15132
5.278773,-1589,-4120,-14034
5.279974,-1714,-3828,-13346
5.281174,-1928,-3477,-12109
5.305041,-2076,-3278,-11209
5.306241,-2241,-2933,-10283
5.307442,-2345,-2653,-9865
5.308642,-2510,-2458,-9094
5.309843,-2673,-2094,-8446
5.311043,-2729,-1767,-8152
5.312244,-2771,-1432,-7565
5.313444,-2673,-1234,-7051
5.314645,-2550,-912,-6568
5.315845,-2483,-668,-6521
5.317046,-2456,-519,-6346
5.318246,-2294,-213,-6112
5.319446,-2164,34,-5948
5.320647,-1943,329,-5677
5.321847,-1653,477,-5248
5.323048,-1410,786,-4713
5.324248,-1319,1168,-4256
5.325449,-1117,1342,-3263
5.326649,-1034,1749,-2063
5.327850,-1056,2127,-1402
5.371113,-1129,2440,43
5.372314,-1133,2624,1568
5.373514,-1134,2939,2692
5.374715,-1001,3239,3197
5.375915,-542,3432,3968
5.377116,100,3934,4817
5.378316,384,4445,5517
5.379517,788,5030,7320
5.380717,992,5517,9842
5.381918,1101,6462,11236
5.383118,1451,7240,13851
5.384318,1762,7566,15816
5.385519,2014,8073,17281
5.386719,2121,8489,17889
5.387920,2325,8942,18817
5.389120,2537,9111,19374
5.390321,2633,9634,19422
5.391521,2787,10230,19090
5.392722,2796,10503,18234
5.393922,2464,10808,16920
5.428733,2213,10875,16271
5.429934,1747,10911,15255
5.431134,1113,10687,14665
5.432335,766,10311,14299
5.433535,-47,9849,13157
5.434736,-980,9566,11876
5.435936,-1792,9011,10384
5.437137,-2355,8268,9641
5.438337,-3278,7945,7905
5.439538,-4316,7069,5954
5.440738,-4835,6302,4951
5.441939,-5539,5520,2813
5.443139,-6152,5029,636
5.444340,-6517,4351,-1367
5.445540,-6802,3335,-2318
5.446741,-7181,2991,-4224
5.447941,-7179,2232,-6247
5.449142,-7259,1403,-7089
5.450342,-7215,661,-8843
5.451543,-7025,298,-10426
5.428911,-6804,-415,-12255
5.430111,-6641,-1085,-12864
5.431312,-6293,-1425,-14258
5.432512,-5920,-2058,-15548
5.433713,-5644,-2611,-16142
5.434913,-5148,-3212,-17377
5.436114,-4652,-3391,-18315
5.437314,-3995,-3792,-19023
5.438515,-3770,-4216,-19412
5.439715,-3291,-4403,-20050
5.440916,-2846,-4693,-20476
5.442116,-2688,-5001,-20638
5.443317,-2360,-5123,-20775
5.444517,-2159,-5328,-20748
5.445718,-2100,-5512,-20651
5.446918,-2036,-5659,-20289
5.448119,-2126,-5736,-19735
5.449319,-2177,-5786,-18899
5.450520,-2052,-5719,-18359
5.451720,-1907,-5385,-16926
5.480499,-1779,-5393,-15410
5.481700,-1735,-4880,-14735
5.482900,-1757,-4275,-13360
5.484101,-1824,-3949,-11868
5.485301,-1843,-3398,-10708
5.486502,-1867,-2905,-10238
5.487702,-1974,-2397,-9169
5.488903,-2110,-2294,-8155
5.490103,-2184,-1944,-7745
5.491304,-2367,-1682,-6990
5.492504,-2604,-1536,-6290
5.493705,-2819,-1220,-5695
5.494905,-2887,-823,-5456
5.496106,-2942,-640,-5254
5.497306,-2950,-314,-5122
5.498507,-2923,-7,-5190
5.499707,-2847,297,-5270
5.500908,-2749,425,-5481
5.502108,-2550,682,-5656
5.503309,-2396,832,-6011
5.532891,-2202,881,-6325
5.534092,-2095,852,-6532
5.535292,-2080,839,-6578
5.536493,-2032,820,-6691
5.537693,-1922,813,-6747
5.538894,-1864,803,-6458
5.540094,-1887,794,-6517
5.541295,-1862,838,-6154
5.542495,-1743,985,-5687
5.543696,-1717,1101,-5404
5.544896,-1691,1259,-4877
5.546097,-1698,1293,-4187
5.547297,-1704,1406,-3567
5.548498,-1511,1550,-3375
5.549698,-1034,1632,-3246
5.550898,-223,1919,-3061
5.552099,181,2293,-2706
5.553299,719,2845,-1055
5.554500,614,3313,2195
5.555700,141,4158,6688
5.559823,-88,4855,9083
5.561024,-232,5164,12927
5.562224,-92,5700,15716
5.563424,69,6269,16889
5.564625,422,6755,19197
5.565825,1029,7191,21281
5.567026,1935,8047,22095
5.568226,2190,8950,23099
5.569427,2668,9307,23618
5.570627,2844,10138,23892
5.571828,2906,11084,23846
5.573028,2915,11782,23137
5.574229,2587,12318,21739
5.575429,2244,12613,21005
5.576630,1449,12588,19592
5.577830,638,12476,18385
5.579031,-287,12049,17091
5.580231,-828,11408,16421
5.581432,-1969,11048,14681
5.582632,-3091,10236,12855
5.559971,-3703,9384,11877
5.561171,-4804,8424,9877
5.562371,-6007,7894,7536
5.563572,-7056,6954,5363
5.564772,-7486,6059,4139
5.565973,-8114,5622,1992
5.567173,-8767,4590,-282
5.568374,-8924,3664,-1356
5.569574,-9455,2747,-3477
5.570775,-9813,2310,-5396
5.571975,-9955,1361,-7169
5.573176,-10025,471,-8429
5.574376,-9985,44,-10332
5.575577,-9790,-771,-12230
5.576777,-9680,-1547,-13125
5.577978,-9370,-2261,-14764
5.579178,-8954,-2538,-16467
5.580379,-8398,-3299,-18074
5.581579,-8042,-3936,-18742
5.582780,-7363,-4237,-20190
5.611037,-6536,-4732,-21472
5.612238,-6151,-5258,-22025
5.613438,-5490,-5790,-22933
5.614639,-4829,-5958,-23585
5.615839,-4277,-6361,-24148
5.617039,-3935,-6725,-24396
5.618240,-3467,-6907,-24745
5.619440,-3150,-7214,-24795
5.620641,-3067,-7511,-24733
5.621841,-2938,-7927,-24486
5.623042,-3092,-7971,-23559
5.624242,-3190,-7818,-22666
5.625443,-3061,-7311,-20504
5.626643,-2820,-7030,-18635
5.627844,-2807,-6482,-17259
5.629044,-2900,-5969,-16574
5.630245,-3089,-5366,-15056
5.631445,-3231,-4979,-13615
5.632646,-3355,-4443,-12972
5.633846,-3662,-3926,-11780
5.658442,-3965,-3676,-10716
5.659642,-4276,-3188,-9641
5.660843,-4435,-2684,-9090
5.662043,-4624,-2144,-8288
5.663244,-4728,-1908,-7576
5.664444,-4765,-1417,-7299
5.665645,-4793,-942,-6856
5.666845,-4748,-707,-6487
5.668046,-4622,-288,-6326
5.669246,-4437,179,-6293
5.670447,-3885,357,-6365
5.671647,-3176,684,-6500
5.672848,-2818,1005,-6453
5.674048,-2122,1482,-5929
5.675249,-1754,1715,-4619
5.676449,-1887,2200,-2713
5.677650,-2117,2594,-1545
5.678850,-2607,2833,809
5.680051,-2868,3251,2991
5.681251,-2858,3670,3934
5.706306,-2588,4132,5472
5.707506,-2074,4344,6876
5.708706,-1470,4938,8622
5.709907,-1015,5648,9444
5.711107,-359,6105,11742
5.712308,206,6990,14428
5.713508,480,7856,15746
5.714709,960,8476,18032
5.715909,1252,8731,19953
5.717110,1664,9288,21478
5.718310,1742,10038,21764
5.719511,1977,10429,22311
5.720711,2078,11351,22006
5.721912,2234,12295,21357
5.723112,2248,12586,19088
5.724313,1855,12525,16491
5.725513,1050,12416,15424
5.726714,676,11896,14140
5.727914,215,11467,13133
5.729115,-342,10764,11240
5.755449,-699,9866,10210
5.756650,-1718,9186,8536
5.757850,-2607,8506,6787
5.759050,-3509,7467,5853
5.760251,-3750,6475,3719
5.761451,-4258,6051,1606
5.762652,-4724,5129,-363
5.763852,-4882,4346,-1320
5.765053,-5086,3441,-3254
5.766253,-5186,3133,-5126
5.767454,-5221,2357,-6004
5.768654,-5197,1564,-7716
5.769855,-5127,1130,-9303
5.771055,-5009,421,-10801
5.772256,-4987,-298,-11495
5.773456,-4778,-650,-12807
5.774657,-4515,-1379,-14050
5.775857,-4328,-2012,-14659
5.777058,-3907,-2576,-15782
5.778258,-3545,-2892,-16732
5.806175,-3202,-3454,-17662
5.807376,-3048,-3893,-17906
5.808576,-2751,-4108,-18580
5.809777,-2507,-4563,-19145
5.810977,-2381,-4940,-19380
5.812178,-2194,-5320,-19824
5.813378,-1994,-5526,-20187
5.814579,-1636,-5905,-20339
5.815779,-1642,-6322,-20475
5.816980,-1534,-6554,-20160
5.818180,-1593,-6893,-19043
5.819381,-1612,-6771,-18227
5.820581,-1555,-6404,-16251
5.821782,-1522,-6224,-14632
5.822982,-1553,-5710,-13575
5.824183,-1640,-5272,-13004
5.825383,-1752,-5041,-11786
5.826584,-1910,-4549,-10779
5.827784,-2023,-4146,-10292
5.828985,-2279,-3670,-9473
5.854445,-2515,-3488,-8704
5.855646,-2593,-3104,-8334
5.856846,-2723,-2663,-7883
5.858047,-2744,-2424,-7462
5.859247,-2737,-1932,-7160
5.860448,-2725,-1390,-7032
5.861648,-2759,-907,-6737
5.862849,-2679,-619,-6469
5.864049,-2629,-129,-6325
5.865249,-2595,347,-6133
5.866450,-2486,597,-5996
5.867650,-2327,1025,-5808
5.868851,-2238,1362,-5696
5.870051,-2022,1781,-5355
5.871252,-1843,1790,-4923
5.872452,-1780,2042,-4681
5.873653,-1675,2261,-4125
5.874853,-1575,2374,-3352
5.876054,-1475,2623,-2555
5.877254,-1476,2895,-2072
5.879482,-1409,3037,-1151
5.880682,-1259,3333,-319
5.881883,-1135,3653,57
5.883083,-809,3988,691
5.884284,-323,4162,1349
5.885484,283,4522,2265
5.886684,586,4905,2765
5.887885,1039,5060,4221
5.889085,1253,5334,6119
5.890286,1254,5604,7249
5.891486,1239,5896,9685
5.892687,1275,6069,11900
5.893887,1708,6601,13797
5.895088,1856,6862,14306
5.896288,1974,6978,15415
5.897489,2227,7296,16172
5.898689,2362,7573,16483
5.899890,2429,8020,16606
5.901090,2678,8197,15965
5.902291,2878,8460,14030
5.879684,2773,8213,12832
5.880885,2476,8210,10734
5.882085,2528,8115,9787
5.883286,2488,7754,9543
5.884486,2217,7295,8927
5.885687,1795,7224,8167
5.886887,1533,6850,7584
5.888087,993,6468,7214
5.889288,572,6273,6231
5.890488,135,5920,5062
5.891689,-60,5549,4477
5.892889,-387,5352,3360
5.894090,-544,4998,2114
5.895290,-636,4683,1556
5.896491,-803,4395,707
5.897691,-1044,4255,147
5.898892,-1282,3951,-452
5.900092,-1396,3617,-811
5.901293,-1659,3200,-1411
5.902493,-1985,3082,-1879
5.933552,-2193,2661,-2149
5.934752,-2646,2299,-2726
5.935953,-3092,2113,-3417
5.937153,-3470,1712,-4200
5.938354,-3608,1337,-4626
5.939554,-3835,914,-5581
5.940755,-3942,800,-6658
5.941955,-3962,455,-7167
5.943156,-3898,127,-8175
5.944356,-3793,-1,-9153
5.945557,-3654,-299,-10136
5.946757,-3567,-557,-10524
5.947958,-3339,-725,-11283
5.949158,-3075,-996,-11998
5.950359,-2990,-1238,-12258
5.951559,-2835,-1476,-12694
5.952760,-2672,-1628,-13139
5.953960,-2536,-1862,-13606
5.955161,-2469,-2147,-13836
5.956361,-2255,-2260,-14152
5.981050,-2027,-2498,-14388
5.982251,-1938,-2738,-14470
5.983451,-1714,-2931,-14562
5.984652,-1433,-3046,-14574
5.985852,-1051,-3308,-14506
5.987053,-1186,-3551,-14208
5.988253,-1158,-3674,-13714
5.989454,-1155,-3873,-12950
5.990654,-1157,-4000,-12532
5.991855,-1107,-4049,-11646
5.993055,-1013,-4100,-10817
5.994256,-954,-4074,-10200
5.995456,-814,-3901,-9716
5.996657,-872,-3715,-8814
5.997857,-882,-3195,-7901
5.999058,-915,-2656,-7459
6.000258,-893,-2114,-6800
6.001458,-811,-1917,-6401
6.002659,-515,-1648,-6326
6.003859,-695,-1475,-6252
6.028976,-699,-1402,-6073
6.030177,-814,-1274,-5869
6.031377,-900,-1121,-5785
6.032578,-1092,-1020,-5684
6.033778,-1342,-803,-5700
6.034979,-1425,-570,-5805
6.036179,-1512,-379,-6120
6.037379,-1557,-290,-6607
6.038580,-1557,-102,-7105
6.039780,-1522,75,-7317
6.040981,-1426,163,-7891
6.042181,-1376,274,-8367
6.043382,-1334,414,-8566
6.044582,-1230,519,-8807
6.045783,-1300,536,-9067
6.046983,-1342,653,-9091
6.048184,-1317,767,-9142
6.049384,-1357,819,-9147
6.050585,-1300,950,-9136
6.051785,-1296,1023,-9075
6.074402,-1297,1023,-8889
6.075603,-1398,1011,-8589
6.076803,-1504,1019,-8121
6.078004,-1564,1041,-7981
6.079204,-1542,1074,-7511
6.080405,-1377,1152,-7081
6.081605,-1279,1305,-6918
6.082806,-952,1489,-6408
6.084006,-545,1643,-5715
6.085207,-68,1975,-4402
6.086407,-4,2428,-3644
6.087608,76,2687,-1495
6.088808,-148,3206,1354
6.090009,-356,3691,2989
6.091209,-744,4129,6411
6.092410,-868,4345,9447
6.093610,-527,4863,11798
6.094811,-362,5370,13012
6.096011,254,5674,15105
6.097211,896,6205,16981
6.160637,1263,6764,17831
6.161838,2069,7327,19213
6.163038,2578,7516,20352
6.164239,2717,7963,21741
6.165439,2834,8445,22102
6.166640,2908,8797,22689
6.167840,2898,9400,22339
6.169041,2824,10082,21720
6.170241,2454,10216,19783
6.171441,1597,10174,17701
6.172642,968,10206,16912
6.173842,513,9881,15836
6.175043,-321,9668,14562
6.176243,-1281,9172,12781
6.177444,-1742,8592,11845
6.178644,-2755,7896,10021
6.179845,-3737,7550,8080
6.181045,-4205,6842,7013
6.182246,-5154,6144,4954
6.183446,-5831,5836,2831
6.160772,-6366,5174,858
6.161973,-6662,4421,-165
6.163173,-7252,3961,-2229
6.164374,-7612,3296,-4241
6.165574,-7784,2506,-5183
6.166775,-8049,1686,-6970
6.167975,-8228,1266,-8795
6.169175,-8200,533,-10547
6.170376,-8144,-203,-11640
6.171576,-7873,-536,-13368
6.172777,-7562,-1280,-15087
6.173977,-7402,-1932,-15928
6.175178,-6848,-2559,-17411
6.176378,-6284,-2937,-18661
6.177579,-5826,-3476,-19789
6.178779,-5587,-3943,-20313
6.179980,-5071,-4171,-21253
6.181180,-4577,-4600,-22062
6.182381,-4310,-5005,-22413
6.183581,-3853,-5382,-22958
6.160853,-3460,-5571,-23316
6.162053,-3289,-5948,-23367
6.163254,-2980,-6261,-23469
6.164454,-2790,-6436,-23458
6.165655,-2711,-6783,-22762
6.166855,-2740,-6862,-22067
6.168056,-2704,-6491,-20151
6.169256,-2518,-6363,-18064
6.170457,-2464,-5835,-16406
6.171657,-2539,-5285,-15829
6.172858,-2755,-5064,-14477
6.174058,-2937,-4514,-13160
6.175259,-3039,-4009,-12557
6.176459,-3247,-3512,-11466
6.177660,-3437,-3327,-10514
6.178860,-3824,-2916,-10070
6.180061,-3740,-2466,-9172
6.181261,-3875,-2230,-8290
6.182462,-3930,-1709,-7585
6.183662,-3950,-1178,-7265
6.215101,-3980,-622,-6795
6.216302,-3945,-360,-6267
6.217502,-3921,87,-5784
6.218703,-3720,473,-5761
6.219903,-3456,647,-5648
6.221104,-3244,916,-5384
6.222304,-3148,1097,-5273
6.223505,-2986,1188,-4973
6.224705,-2852,1368,-4695
6.225906,-2797,1519,-4465
6.227106,-2630,1691,-3920
6.228307,-2435,1804,-3379
6.229507,-2309,1932,-2831
6.230708,-2250,2087,-2547
6.231908,-2061,2171,-1973
6.233108,-1732,2391,-1342
6.234309,-1498,2505,-1079
6.235509,-883,2733,-738
6.236710,-13,2933,-191
6.237910,800,3470,1117
6.270381,963,4057,2536
6.271581,752,4378,6404
6.272782,272,4988,11238
6.273982,135,5582,13441
6.275183,155,6221,17117
6.276383,593,6550,19584
6.277584,1091,7265,21652
6.278784,1457,8043,22468
6.279985,2150,8459,24033
6.281185,2737,9381,25104
6.282386,2883,10396,25443
6.283586,3034,11072,25604
6.284787,2893,11396,25013
6.285987,2459,11852,23671
6.287188,2167,12043,22765
6.288388,1246,11975,20886
6.289589,196,11839,19300
6.290789,-326,11326,18679
6.291989,-1462,10519,17356
6.293190,-2681,10456,15490
6.330250,-4073,9726,14524
6.331450,-4588,8885,12505
6.332651,-5864,8417,10215
6.333851,-7126,7395,7478
6.335052,-7644,6511,6061
6.336252,-8455,5847,3880
6.337453,-9121,5239,2010
6.338653,-9960,4322,-14
6.339854,-10235,3261,-1266
6.341054,-10872,2858,-3711
6.342255,-11240,1679,-5805
6.343455,-11310,674,-6958
6.344656,-11339,126,-9137
6.345856,-11161,-812,-11230
6.347057,-10967,-1632,-12208
6.348257,-10651,-2382,-14052
6.349457,-10089,-2778,-15766
6.350658,-9452,-3439,-17640
6.351858,-9196,-4117,-18251
6.353059,-8573,-4434,-19732
6.330453,-7700,-4901,-21095
6.331654,-7333,-5388,-21749
6.332854,-6661,-5704,-22927
6.334055,-5813,-5857,-23765
6.335255,-5156,-6216,-24438
6.336456,-4755,-6350,-24797
6.337656,-4268,-6471,-25136
6.338857,-3973,-6635,-25230
6.340057,-3742,-6618,-25148
6.341258,-3522,-6617,-25032
6.342458,-3320,-6670,-24598
6.343659,-3371,-6700,-23094
6.344859,-3369,-6253,-22109
6.346060,-2968,-6027,-19886
6.347260,-2907,-5453,-17887
6.348461,-2873,-4815,-16858
6.349661,-3107,-4245,-14999
6.350861,-3419,-3834,-13350
6.352062,-3703,-3075,-11868
6.353262,-3784,-2477,-11165
6.386307,-4066,-2166,-9947
6.387508,-4373,-1651,-8771
6.388708,-4481,-1100,-8300
6.389909,-4493,-546,-7447
6.391109,-4427,-288,-6710
6.392310,-4382,168,-6391
6.393510,-4291,648,-5745
6.394711,-4171,851,-5227
6.395911,-4001,1171,-4830
6.397112,-3909,1347,-4707
6.398312,-3731,1397,-4476
6.399512,-3488,1415,-4330
6.400713,-3113,1350,-4270
6.401913,-3189,1255,-4268
6.403114,-2987,1190,-4164
6.404314,-2825,1079,-4094
6.405515,-2755,983,-3995
6.406715,-2547,931,-3900
6.407916,-2382,887,-3725
6.409116,-2310,802,-3653
6.443205,-2149,743,-3478
6.444405,-1941,726,-3287
6.445606,-1710,695,-2879
6.446806,-1619,684,-2902
6.448007,-1355,715,-2642
6.449207,-1060,781,-2235
6.450408,-852,945,-1970
6.451608,-450,1242,-1459
6.452809,-90,1405,-680
6.454009,262,1880,337
6.455210,411,2416,1271
6.456410,577,2788,3321
6.457611,553,3579,5971
6.458811,495,4439,7443
6.460012,421,5374,10351
6.461212,559,5857,12829
6.462413,970,6818,14716
6.463613,1149,7684,15525
6.464814,1727,8103,16816
6.466014,2351,8941,17981
6.473966,2584,9687,18533
6.475166,2857,10589,19577
6.476366,3039,10923,20363
6.477567,2822,11780,20559
6.478767,2999,12616,20351
6.479968,2715,12936,19213
6.481168,2015,13034,17350
6.482369,1670,12777,16384
6.483569,890,12268,14808
6.484770,111,11779,13700
6.485970,-525,10896,12935
6.487171,-1182,9858,11128
6.488371,-2057,9348,9097
6.489572,-2906,8295,7239
6.490772,-3286,7204,6373
6.491973,-4017,6167,4528
6.493173,-4634,5725,2642
6.494374,-5170,4718,1722
6.495574,-5433,3704,62
6.496775,-5856,3148,-1568
6.474109,-6226,2147,-3379
6.475309,-6337,1169,-4229
6.476510,-6517,209,-5946
6.477710,-6617,-240,-7476
6.478911,-6589,-1070,-8245
6.480111,-6447,-1805,-9918
6.481312,-6271,-2164,-11483
6.482512,-5961,-2778,-12909
6.483713,-5730,-3298,-13596
6.484913,-5300,-3565,-14853
6.486113,-4847,-4032,-16050
6.487314,-4621,-4392,-16643
6.488514,-4139,-4733,-17561
6.489715,-3680,-4857,-18353
6.490915,-3285,-5088,-18970
6.492116,-3088,-5266,-19298
6.493316,-2740,-5329,-19812
6.494517,-2471,-5421,-20113
6.495717,-2349,-5475,-20205
6.496918,-2204,-5471,-20244
6.526246,-2142,-5441,-20082
6.527447,-2144,-5393,-19671
6.528647,-2251,-5262,-19312
6.529848,-2448,-5175,-18120
6.531048,-2357,-4972,-16630
6.532249,-2248,-4562,-15882
6.533449,-2035,-3920,-14380
6.534650,-1858,-3617,-12969
6.535850,-1824,-2984,-11521
6.537051,-1850,-2308,-10907
6.538251,-1891,-2009,-9645
6.539452,-1988,-1471,-8555
6.540652,-2073,-1101,-8129
6.541852,-2230,-946,-7300
6.543053,-2354,-631,-6533
6.544253,-2417,-346,-6220
6.545454,-2483,-41,-5647
6.546654,-2476,92,-5231
6.547855,-2385,372,-5020
6.549055,-2307,634,-4950
6.580299,-2121,1001,-4880
6.581500,-1926,902,-4916
6.582700,-1561,1004,-4961
6.583901,-1593,1077,-5040
6.585101,-1390,1112,-5085
6.586302,-1163,1155,-5083
6.587502,-1084,1176,-5081
6.588703,-937,1176,-5118
6.589903,-803,1212,-5080
6.591104,-727,1277,-5030
6.592304,-589,1399,-4890
6.593505,-469,1448,-4589
6.594705,-282,1619,-4096
6.595906,-192,1879,-3821
6.597106,-49,2000,-3040
6.598307,57,2355,-2000
6.599507,93,2757,-1414
6.600708,181,3179,-116
6.601908,260,3413,1148
6.603108,327,3880,2260
6.609334,389,4286,2801
6.610535,600,4525,3751
6.611735,899,5021,4675
6.612936,1077,5554,5218
6.614136,1565,6061,6339
6.615337,2091,6334,7492
6.616537,2534,6870,8890
6.617738,2622,7354,9448
6.618938,2832,7556,10830
6.620139,2966,7867,11986
6.621339,3008,8131,12424
6.622539,2997,8228,12952
6.623740,2905,8366,13074
6.624940,2872,8581,12065
6.626141,2928,8629,11413
6.627341,2636,8505,9336
6.628542,2207,8330,7831
6.629742,2084,7988,7424
6.630943,1860,7539,6422
6.632143,1584,7396,5195
6.658862,1117,6864,4593
6.660062,967,6330,3415
6.661263,567,6067,2315
6.662463,221,5496,1236
6.663664,58,4893,702
6.664864,-227,4319,-447
6.666065,-440,3993,-1589
6.667265,-761,3414,-2148
6.668466,-499,2858,-3199
6.669666,-352,2598,-4143
6.670867,-203,2099,-4835
6.672067,-160,1582,-5058
6.673268,-166,1079,-5317
6.674468,-294,879,-5485
6.675669,-381,371,-5497
6.676869,-627,-62,-5716
6.678070,-841,-276,-6008
6.679270,-980,-691,-6333
6.680471,-1048,-1043,-6558
6.681671,-1051,-1196,-6924
6.706952,-1008,-1438,-7354
6.708152,-939,-1648,-7562
6.709353,-799,-1810,-7937
6.710553,-648,-1905,-8346
6.711754,-540,-2050,-8778
6.712954,-496,-2223,-8778
6.714155,-372,-2277,-8970
6.715355,-306,-2380,-9186
6.716556,-288,-2454,-9281
6.717756,-265,-2465,-9425
6.718957,-201,-2465,-9482
6.720157,-170,-2367,-9479
6.721358,-104,-2253,-9543
6.722558,-27,-2162,-9581
6.723759,40,-1951,-9484
6.724959,81,-1677,-9411
6.726160,196,-1524,-9177
6.727360,314,-1171,-8762
6.728561,357,-813,-7966
6.729761,369,-472,-7853
6.734106,380,-301,-7162
6.735307,418,19,-6428
6.736507,434,343,-6090
6.737708,509,513,-5469
6.738908,544,833,-4846
6.740109,569,1130,-4588
6.741309,578,1366,-4055
6.742510,616,1447,-3657
6.743710,594,1604,-3301
6.744911,542,1642,-3100
6.746111,515,1670,-2905
6.747312,466,1667,-2861
6.748512,410,1536,-2837
6.749713,503,1393,-2889
6.750913,630,1301,-3249
6.752114,640,1105,-3677
6.753314,606,844,-3851
6.754515,538,697,-4182
6.755715,493,342,-4581
6.756916,499,-82,-4868
6.734333,437,-487,-5352
6.735533,309,-639,-5781
6.736734,216,-953,-6239
6.737934,180,-1161,-6472
6.739135,144,-1257,-6837
6.740335,147,-1419,-7153
6.741536,164,-1578,-7279
6.742736,125,-1725,-7478
6.743937,80,-1825,-7706
6.745137,3,-1991,-7821
6.746338,-42,-2132,-7993
6.747538,-79,-2197,-8120
6.748739,-101,-2256,-8239
6.749939,-80,-2261,-8266
6.751140,-95,-2267,-8324
6.752340,-83,-2249,-8382
6.753541,-120,-2207,-8358
6.754741,-183,-2134,-8365
6.755942,-232,-2122,-8299
6.757142,-171,-2000,-8290
6.789156,-154,-1876,-8240
6.790357,-207,-1675,-8021
6.791557,-149,-1590,-7787
6.792758,-159,-1380,-7668
6.793958,-109,-1110,-7413
6.795158,-65,-971,-7003
6.796359,-26,-637,-6440
6.797559,-23,-208,-6157
6.798760,2,272,-5451
6.799960,65,566,-4608
6.801161,110,1191,-4174
6.802361,250,1868,-3207
6.803562,406,2215,-2190
6.804762,643,2988,-917
6.805963,795,3889,-189
6.807163,1139,4887,1526
6.808364,1431,5458,3730
6.809564,1501,6599,4930
6.810765,1449,7828,7609
6.811965,1474,8441,10078
6.841976,1582,9587,12060
6.843176,1665,10558,12873
6.844377,1860,11264,14264
6.845577,2141,11827,15276
6.846778,2557,12632,15588
6.847978,2523,13279,15996
6.849179,2571,13576,15977
6.850379,2543,14080,15030
6.851580,2414,13931,14193
6.852780,1803,13645,12083
6.853981,1271,13025,10395
6.855181,1028,12175,9961
6.856382,545,11167,8963
6.857582,-50,10671,7475
6.858783,-707,9693,5926
6.859983,-1008,8612,5351
6.861184,-1461,8076,4069
6.862384,-1797,7119,2767
6.863585,-1916,6277,2164
6.864785,-2173,5457,1150
6.866545,-2580,5018,415
6.867745,-3050,4112,-263
6.868946,-3335,3188,-931
6.870146,-3837,2753,-1971
6.871347,-4287,1801,-3053
6.872547,-4505,859,-3609
6.873748,-4750,2,-4773
6.874948,-4898,-400,-6010
6.876149,-4904,-1172,-7099
6.877349,-4850,-1918,-7760
6.878549,-4803,-2270,-8959
6.879750,-4718,-2884,-10211
6.880950,-4577,-3509,-10820
6.882151,-4290,-4023,-11960
6.883351,-3880,-4195,-13009
6.884552,-3424,-4602,-14035
6.885752,-3232,-4931,-14502
6.886953,-2838,-5055,-15334
6.888153,-2397,-5269,-15982
6.889354,-2211,-5442,-16191
6.912118,-1886,-5499,-16532
6.913318,-1616,-5553,-16798
6.914518,-1503,-5516,-16833
6.915719,-1329,-5433,-16805
6.916919,-1228,-5380,-16685
6.918120,-1157,-5221,-16347
6.919320,-1139,-4991,-16055
6.920521,-1200,-4854,-15129
6.921721,-1159,-4607,-13892
6.922922,-1084,-4340,-13253
6.924122,-881,-4081,-11987
6.925323,-770,-3885,-10765
6.926523,-756,-3395,-9476
6.927724,-772,-2772,-8844
6.928924,-829,-2450,-7631
6.930125,-843,-1860,-6657
6.931325,-844,-1432,-6352
6.932526,-899,-1148,-5821
6.933726,-973,-998,-5310
6.934927,-1028,-751,-4818
7.017300,-1049,-551,-4559
7.018500,-1131,-457,-4253
7.019701,-1197,-342,-4138
7.020901,-1224,-230,-4117
7.022102,-1243,-189,-4199
7.023302,-1183,-181,-4459
7.024503,-1108,-173,-4658
7.025703,-1042,-226,-5027
7.026903,-931,-237,-5417
7.028104,-831,-271,-5832
7.029304,-783,-277,-6010
7.030505,-682,-255,-6293
7.031705,-528,-187,-6421
7.032906,-454,-30,-6145
7.034106,-293,220,-6236
7.035307,-154,380,-5884
7.036507,-67,762,-5397
7.037708,-32,1220,-5065
7.038908,-67,1694,-4301
7.040109,-54,1922,-3512
7.017438,-55,2406,-2580
7.018639,-12,2912,-2347
7.019839,47,3140,-1641
7.021040,150,3609,-964
7.022240,222,4056,-704
7.023441,393,4535,-307
7.024641,731,4668,5
7.025842,1516,5066,173
7.027042,1709,5584,671
7.028243,2364,5902,1664
7.029443,2742,6573,3502
7.030644,2829,7308,4634
7.031844,2845,7874,6658
7.033045,2745,7946,8204
7.034245,2365,8044,8867
7.035446,2456,8189,10069
7.036646,2334,8298,11108
7.037847,2272,8576,11734
7.039047,2269,8791,11796
7.040248,2348,9144,10984
7.074140,2508,8933,9072
7.075340,2495,8725,7989
7.076541,2389,8490,6354
7.077741,2322,8228,5628
7.078942,2021,7677,5033
7.080142,1801,7045,4529
7.081343,1278,6712,3771
7.082543,714,5979,3055
7.083744,437,5236,2675
7.084944,4,4516,1725
7.086144,-238,4217,596
7.087345,-412,3664,-461
7.088545,-481,3231,-817
7.089746,-562,3056,-1522
7.090946,-633,2937,-2068
7.092147,-682,2907,-2244
7.093347,-871,2877,-2591
7.094548,-1134,2822,-3065
7.095748,-1521,2704,-3830
7.096949,-1493,2523,-3932
7.123047,-1671,2432,-4587
7.124248,-1806,2198,-5215
7.125448,-1848,1960,-5541
7.126649,-1909,1575,-6187
7.127849,-1925,1574,-6839
7.129050,-1939,1289,-7384
7.130250,-1934,968,-7651
7.131451,-1930,775,-8185
7.132651,-1945,423,-8727
7.133852,-1946,37,-8945
7.135052,-1962,-441,-9282
7.136252,-2006,-654,-9687
7.137453,-2057,-1113,-9939
7.138653,-2091,-1579,-10374
7.139854,-2020,-1816,-10704
7.141054,-1925,-2250,-11078
7.142255,-1849,-2605,-11217
7.143455,-1651,-3113,-11445
7.144656,-1455,-3291,-11540
7.145856,-1378,-3655,-11554
7.148559,-1275,-4025,-11402
7.149759,-1222,-4168,-11164
7.150960,-1204,-4485,-10944
7.152160,-1185,-4748,-10811
7.153361,-1069,-5113,-10516
7.154561,-861,-5012,-10093
7.155762,-785,-5081,-9782
7.156962,-618,-4963,-9075
7.158163,-452,-4838,-8174
7.159363,-407,-4515,-7227
7.160564,-394,-4202,-6985
7.161764,-365,-4016,-6474
7.162965,-381,-3684,-6051
7.164165,-405,-3337,-5823
7.165366,-508,-2917,-5518
7.166566,-581,-2695,-5261
7.167767,-466,-2280,-5188
7.168967,-415,-2053,-5367
7.170168,-395,-2002,-5802
7.171368,-412,-1941,-6094
7.148744,-410,-1858,-6190
7.149945,-425,-1787,-6339
7.151145,-461,-1736,-6529
7.152346,-735,-1664,-6858
7.153546,-571,-1608,-6814
7.154746,-623,-1589,-7041
7.155947,-623,-1614,-7269
7.157147,-622,-1670,-7387
7.158348,-648,-1722,-7668
7.159548,-691,-1820,-7934
7.160749,-727,-1872,-8011
7.161949,-784,-1946,-8027
7.163150,-797,-1963,-8148
7.164350,-915,-2061,-8229
7.165551,-959,-2062,-8243
7.166751,-1004,-1801,-8266
7.167952,-1028,-1979,-8219
7.169152,-1050,-1861,-8118
7.170353,-1070,-1719,-7972
7.171553,-1051,-1593,-7726
7.202039,-897,-1266,-7325
7.203239,-807,-840,-7033
7.204440,-559,-340,-6376
7.205640,-241,51,-5521
7.206841,16,965,-4919
7.208041,287,2122,-3099
7.209242,336,2791,-442
7.210442,180,4205,2676
7.211643,41,5603,4304
7.212843,-164,6768,7282
7.214044,-180,7562,9603
7.215244,-33,8936,10592
7.216445,486,10186,12167
7.217645,1089,10812,13474
7.218846,1747,12243,14721
7.220046,2027,13593,15324
7.221247,2516,14230,16378
7.222447,2907,15304,16912
7.223648,3037,15932,16861
7.224848,3009,16056,16269
7.255384,2652,15926,14919
7.256584,1940,15204,12635
7.257785,1568,14439,11679
7.258985,961,13932,10377
7.260186,346,12798,9210
7.261386,-34,11616,8403
7.262587,-821,10357,6554
7.263787,-1559,9675,4896
7.264988,-2148,8328,3327
7.266188,-2460,7048,2361
7.267389,-2895,6420,536
7.268589,-3195,5196,-1071
7.269789,-3342,3914,-1796
7.270990,-3588,2795,-3296
7.272190,-3704,2127,-4727
7.273391,-3751,987,-6230
7.274591,-3786,-126,-6738
7.275792,-3695,-598,-7990
7.276992,-3537,-1600,-9168
7.278193,-3424,-2470,-9793
7.299929,-3105,-3122,-10876
7.301129,-2689,-3576,-11712
7.302330,-2219,-4249,-12082
7.303530,-2112,-4815,-12833
7.304731,-1769,-5059,-13321
7.305931,-1540,-5523,-13665
7.307132,-1426,-5855,-13824
7.308332,-1256,-6026,-14008
7.309533,-1099,-6213,-14042
7.310733,-1024,-6355,-14042
7.311934,-918,-6384,-13968
7.313134,-827,-6356,-13763
7.314335,-772,-6253,-13351
7.315535,-759,-6053,-13090
7.316736,-726,-5670,-12507
7.317936,-749,-5614,-11745
7.319137,-736,-5222,-11322
7.320337,-667,-4792,-10402
7.321538,-557,-4581,-9507
7.322738,-414,-4022,-8699
7.346337,-335,-3518,-8211
7.347538,-274,-3249,-7278
7.348738,-272,-2675,-6492
7.349939,-308,-2098,-6127
7.351139,-383,-1548,-5470
7.352340,-350,-1249,-4916
7.353540,-314,-679,-4385
7.354741,-282,-145,-4204
7.355941,-171,41,-3950
7.357142,-133,326,-3868
7.358342,-103,542,-3806
7.359543,-56,693,-3734
7.360743,-28,756,-3669
7.361944,-38,820,-3671
7.363144,-64,851,-3784
7.364345,-60,816,-4033
7.365545,-24,648,-4401
7.366745,246,442,-4649
7.367946,83,40,-5073
7.369146,139,-7,-5506
7.346507,170,-366,-6002
7.347708,171,-708,-6199
7.348908,249,-880,-6502
7.350109,277,-1182,-6820
7.351309,263,-1428,-6966
7.352510,245,-1792,-7143
7.353710,264,-1672,-7336
7.354911,286,-1780,-7411
7.356111,253,-1858,-7468
7.357311,195,-1878,-7527
7.358512,148,-1897,-7498
7.359712,117,-1875,-7462
7.360913,59,-1862,-7357
7.362113,11,-1844,-7296
7.363314,-245,-1799,-7287
7.364514,-17,-1712,-7171
7.365715,21,-1630,-6906
7.366915,145,-1358,-6502
7.368116,231,-914,-6237
7.369316,321,-370,-5384
7.393231,390,70,-4156
7.394431,403,872,-3516
7.395632,325,1705,-2202
7.396832,237,2115,-972
7.398032,236,2950,160
7.399233,285,3764,693
7.400433,533,4144,1616
7.401634,901,4963,2465
7.402834,1085,5898,2954
7.404035,1388,7016,4347
7.405235,1697,7604,6373
7.406436,1880,8899,8532
7.407636,2011,10224,9701
7.408837,2273,10789,11353
7.410037,2407,11705,12477
7.411238,2447,12480,12878
7.412438,2447,13119,13424
7.413639,2441,13416,13614
7.414839,2398,13942,13242
7.416040,2233,14235,12608
7.438978,1929,14061,10805
7.440179,1363,13566,8726
7.441379,1136,12950,8048
7.442580,834,12101,7175
7.443780,429,11873,6161
7.444981,-79,11059,5065
7.446181,-310,10166,4399
7.447382,-886,9656,3450
7.448582,-1442,8622,2350
7.449783,-1657,7686,1750
7.450983,-1974,6759,516
7.452184,-2212,6466,-438
7.453384,-2334,5818,-812
7.454584,-2573,5184,-1554
7.455785,-2848,4891,-2257
7.456985,-3116,4246,-2924
7.458186,-3250,3609,-3243
7.459386,-3546,3032,-3961
7.460587,-3838,2572,-4673
7.461787,-4271,1782,-5035
7.484204,-4312,1021,-5773
7.485404,-4502,606,-6511
7.486605,-4594,-212,-7414
7.487805,-4608,-1092,-7907
7.489006,-4578,-2017,-8749
7.490206,-4360,-2307,-9554
7.491407,-4236,-3040,-9945
7.492607,-3941,-3671,-10617
7.493808,-3602,-4032,-11312
7.495008,-3322,-4685,-11866
7.496209,-3208,-5221,-12084
7.497409,-2934,-5497,-12453
7.498610,-2611,-5933,-12788
7.499810,-2454,-6292,-12896
7.501011,-2253,-6697,-12992
7.502211,-2038,-6869,-13111
7.503412,-1869,-7244,-13155
7.504612,-1743,-7550,-13249
7.505813,-1477,-7717,-13240
7.507013,-1302,-7956,-13158
7.529492,-1196,-8075,-13025
7.530693,-929,-8013,-12498
7.531893,-823,-7927,-11675
7.533094,-520,-7592,-10625
7.534294,-624,-7095,-9921
7.535495,-514,-6833,-8730
7.536695,-397,-6275,-7785
7.537896,-361,-5712,-7381
7.539096,-281,-5186,-6667
7.540297,-251,-4956,-6141
7.541497,-283,-4381,-5566
7.542697,-279,-3624,-5074
7.543898,-201,-3274,-4455
7.545098,-135,-2689,-4264
7.546299,-84,-2410,-4306
7.547499,-24,-2348,-4526
7.548700,26,-2304,-4723
7.549900,-247,-2270,-4806
7.551101,-59,-2285,-4970
7.552301,-169,-2261,-5152
7.576825,-278,-2233,-5369
7.578026,-323,-2215,-5529
7.579226,-389,-2210,-5884
7.580427,-423,-2212,-6249
7.581627,-460,-2241,-6425
7.582828,-458,-2271,-6859
7.584028,-440,-2295,-7225
7.585229,-425,-2287,-7522
7.586429,-408,-2169,-7599
7.587630,-412,-2142,-7686
7.588830,-522,-2120,-7706
7.590031,-561,-2057,-7664
7.591231,-610,-1967,-7615
7.592432,-656,-1903,-7495
7.593632,-754,-1751,-7297
7.594832,-816,-1594,-7146
7.596033,-909,-1488,-6808
7.597233,-906,-1221,-6418
7.598434,-904,-880,-6212
7.599634,-816,-441,-5668
7.603216,-725,-197,-5078
7.604417,-583,338,-4509
7.605617,-506,898,-4030
7.606818,-293,1237,-3101
7.608018,-126,1972,-1978
7.609218,-78,2782,-1290
7.610419,-135,3610,365
7.611619,-288,4041,2089
7.612820,-332,4917,3668
7.614020,-225,5806,4328
7.615221,121,6271,5558
7.616421,616,7184,6597
7.617622,831,8044,7082
7.618822,1140,8850,8035
7.620023,1446,9234,8945
7.621223,1588,9980,9602
7.622424,1844,10666,10053
7.623624,2045,10968,10509
7.624825,2196,11476,10648
7.626025,2278,11936,10579
7.651779,2429,12093,10093
7.652980,2460,12217,9062
7.654180,2149,11858,8325
7.655381,2065,11326,6821
7.656581,1776,11018,5878
7.657782,1535,10388,5219
7.658982,1444,9752,4773
7.660183,1161,9172,3841
7.661383,784,8809,2991
7.662584,382,8215,2669
7.663784,295,7498,2085
7.664985,-70,7155,1316
7.666185,-451,6418,444
7.667386,-624,5572,22
7.668586,-956,4642,-824
7.669787,-1216,4364,-1747
7.670987,-1328,3584,-2157
7.672188,-1593,2836,-2938
7.673388,-1841,2520,-3634
7.674589,-2070,1830,-4356
7.651935,-2161,1210,-4743
7.653135,-2278,920,-5560
7.654336,-2354,300,-6356
7.655536,-2379,-259,-6782
7.656737,-2330,-794,-7568
7.657937,-2269,-1052,-8349
7.659138,-2124,-1515,-8988
7.660338,-2057,-1953,-9444
7.661539,-1931,-2178,-10041
7.662739,-1793,-2545,-10578
7.663940,-1715,-2923,-10836
7.665140,-1586,-3253,-11301
7.666341,-1468,-3402,-11675
7.667541,-1430,-3736,-11819
7.668742,-1356,-3988,-12096
7.669942,-1251,-4127,-12354
7.671143,-1075,-4347,-12559
7.672343,-992,-4548,-12625
7.673544,-849,-4633,-12642
7.674744,-706,-4784,-12534
7.696664,-664,-4916,-12186
7.697864,-597,-4988,-11954
7.699065,-506,-4987,-11297
7.700265,-473,-4957,-10453
7.701466,-444,-4934,-9987
7.702666,-448,-4628,-9217
7.703867,-563,-4757,-8465
7.705067,-577,-4384,-8112
7.706268,-485,-3801,-7382
7.707468,-406,-3550,-6730
7.708669,-365,-3107,-6440
7.709869,-403,-2830,-6386
7.711069,-431,-2723,-6404
7.712270,-442,-2524,-6377
7.713470,-754,-2302,-6401
7.714671,-603,-2103,-6432
7.715871,-713,-1994,-6446
7.717072,-829,-1793,-6524
7.718272,-884,-1634,-6594
7.719473,-1026,-1305,-6735
7.744840,-1000,-1451,-6968
7.746040,-961,-1355,-7102
7.747241,-930,-1288,-7350
7.748441,-874,-1259,-7609
7.749642,-822,-1165,-7792
7.750842,-785,-1047,-7870
7.752043,-698,-982,-7977
7.753243,-695,-878,-7918
7.754444,-668,-745,-7856
7.755644,-655,-615,-7720
7.756845,-594,-566,-7594
7.758045,-582,-405,-7237
7.759245,-600,-260,-7094
7.760446,-645,-200,-6694
7.761646,-706,7,-6255
7.762847,-723,234,-5967
7.764047,-752,501,-5321
7.765248,-776,658,-4718
7.766448,-763,964,-4194
7.767649,-630,1248,-4026
7.794909,-285,1365,-3733
7.796109,413,1660,-3551
7.797310,787,2032,-3369
7.798510,1447,2657,-2362
7.799711,1567,3146,114
7.800911,1130,4368,4329
7.802112,981,5756,6561
7.803312,672,6402,10767
7.804513,545,7652,13905
7.805713,576,8683,15059
7.806913,815,9667,16987
7.808114,1232,9997,18457
7.809314,1743,10880,18976
7.810515,2052,11656,19412
7.811715,2496,11994,19100
7.812916,2641,12572,18191
7.814116,2623,13022,17551
7.815317,2400,12815,15936
7.816517,1845,12937,14113
7.817718,1027,12677,13456
7.841804,909,12224,12731
7.843004,142,11970,11723
7.844205,-784,11385,10148
7.845405,-1287,10614,9245
7.846606,-2287,9944,7488
7.847806,-3174,9358,5747
7.849007,-3633,8396,4881
7.850207,-4360,7391,3075
7.851408,-4995,6930,1010
7.852608,-5456,5910,-888
7.853808,-5684,5007,-1829
7.855009,-6009,4023,-3662
7.856209,-6237,3535,-5418
7.857410,-6302,2616,-6266
7.858610,-6395,1673,-7879
7.859811,-6397,1189,-9333
7.861011,-6371,384,-10878
7.862212,-6318,-441,-11492
7.863412,-6160,-823,-12718
7.864613,-5993,-1590,-13913
7.889521,-5842,-2322,-14497
7.890721,-5564,-3050,-15618
7.891922,-5196,-3407,-16666
7.893122,-4772,-4031,-17460
7.894323,-4537,-4626,-18079
7.895523,-4064,-4917,-18813
7.896724,-3564,-5401,-19320
7.897924,-3328,-5885,-19512
7.899125,-2866,-6282,-19806
7.900325,-2556,-6482,-19743
7.901526,-2453,-6936,-19350
7.902726,-2354,-7326,-19187
7.903927,-2248,-7488,-18565
7.905127,-2117,-7732,-17452
7.906328,-2018,-7819,-16777
7.907528,-1708,-7503,-15323
7.908729,-1430,-7600,-13849
7.909929,-1050,-7375,-13207
7.911130,-1317,-7030,-11968
7.912330,-1419,-6787,-10470
7.936349,-1476,-6198,-9012
7.937550,-1468,-5526,-8402
7.938750,-1553,-4985,-7284
7.939951,-1597,-4655,-6491
7.941151,-1587,-4251,-6257
7.942352,-1604,-3919,-5872
7.943552,-1675,-3777,-5546
7.944753,-1750,-3446,-5303
7.945953,-1792,-3080,-5221
7.947154,-1815,-2643,-5189
7.948354,-1768,-2536,-5192
7.949555,-1728,-2165,-5274
7.950755,-1594,-1852,-5433
7.951956,-1438,-1718,-5669
7.953156,-1239,-1514,-5918
7.954357,-1171,-1385,-6015
7.955557,-1117,-1330,-6100
7.956758,-1130,-1216,-6200
7.957958,-1146,-1101,-6216
7.959159,-1208,-887,-6139
7.983637,-1288,-791,-5858
7.984837,-1219,-515,-5137
7.986038,-898,408,-4954
7.987238,-1886,4,-4345
7.988439,-2537,-428,-4952
7.989639,-2326,12,-4647
7.990840,-1659,103,-3791
7.992040,-1119,362,-3635
7.993241,-1007,852,-3715
7.994441,-1053,1252,-3610
7.995642,-1088,1463,-2930
7.996842,-831,1902,-1858
7.998043,-643,2531,-1228
7.999243,-286,3328,106
8.000444,-35,3768,1682
8.001644,34,4685,3643
8.002845,102,5855,4896
8.004045,231,6567,7825
8.005245,478,8059,11066
8.006446,550,9418,12553
7.983820,807,10660,15101
7.985020,1269,11190,16844
7.986221,1778,12180,17569
7.987421,2033,13088,18590
7.988622,2353,13523,19013
7.989822,2402,14325,19138
7.991023,2362,15141,18990
7.992223,2259,15773,18059
7.993423,1884,15695,16258
7.994624,1070,15340,15248
7.995824,896,14808,13721
7.997025,350,14485,12725
7.998225,-386,13704,11371
7.999426,-829,12716,10556
8.000626,-1844,11710,8994
8.001827,-2697,11104,7472
8.003027,-3217,9666,6693
8.004228,-4235,8360,4708
8.005428,-5216,7634,2543
8.006629,-5713,6537,1005
7.983913,-5644,5417,-82
7.985113,-6430,4140,-2163
7.986314,-6738,3657,-3852
7.987514,-6812,2574,-5789
7.988715,-6990,1474,-6456
7.989915,-6923,969,-7988
7.991116,-6894,-111,-9562
7.992316,-6835,-1009,-10367
7.993517,-6625,-1482,-11830
7.994717,-6391,-2408,-13177
7.995918,-6273,-3329,-13761
7.997118,-5940,-4170,-14835
7.998319,-5394,-4489,-15870
7.999519,-4937,-5225,-16872
8.000720,-4714,-5910,-17232
8.001920,-4238,-6202,-17874
8.003121,-3748,-6766,-18440
8.004321,-3515,-7270,-18657
8.005521,-3054,-7723,-19027
8.006722,-2682,-7901,-19210
8.049955,-2480,-8325,-19199
8.051156,-2074,-8631,-18991
8.052356,-1944,-8879,-18632
8.053557,-1799,-9161,-18009
8.054757,-1719,-9389,-17507
8.055958,-1661,-9388,-16265
8.057158,-1539,-9279,-14826
8.058358,-1484,-9084,-13370
8.059559,-1598,-8712,-12813
8.060759,-1705,-8402,-11609
8.061960,-1733,-7718,-10370
8.063160,-1701,-6908,-9836
8.064361,-1727,-6273,-8865
8.065561,-1835,-5834,-8133
8.066762,-1900,-5217,-7818
8.067962,-2072,-4685,-7264
8.069163,-2202,-4426,-6794
8.070363,-2295,-3903,-6561
8.071564,-2311,-3331,-6521
8.072764,-2347,-2783,-6453
8.095777,-2397,-2495,-6329
8.096977,-2405,-1963,-6304
8.098178,-2403,-1483,-6388
8.099378,-2291,-1308,-6475
8.100579,-2163,-1026,-6655
8.101779,-2072,-927,-6781
8.102980,-2000,-890,-6998
8.104180,-1928,-836,-7123
8.105381,-1948,-774,-7094
8.106581,-1932,-654,-6995
8.107782,-1968,-585,-6811
8.108982,-2009,-365,-6631
8.110183,-2010,-159,-6363
8.111383,-2116,-71,-5984
8.112584,-2112,234,-5385
8.113784,-2228,312,-5100
8.114984,-2318,613,-4637
8.116185,-2190,763,-4162
8.117385,-2220,963,-3560
8.118586,-2158,1210,-3337
8.145976,-2055,1337,-3009
8.147176,-1726,1581,-2727
8.148377,-1528,1848,-2602
8.149577,-920,2258,-2241
8.150778,-320,2576,-1373
8.151978,-154,3452,714
8.153178,-156,4643,2101
8.154379,-496,5307,5861
8.155579,-720,6646,9511
8.156780,-682,7915,11020
8.157980,-346,9006,13334
8.159181,302,9485,15017
8.160381,868,10466,16758
8.161582,1269,11407,17726
8.162782,1806,11954,19484
8.163983,2465,13080,20679
8.165183,2710,13927,21078
8.166384,2817,14783,21901
8.167584,2666,15060,22500
8.168785,2325,15965,22474
8.172290,2264,16634,21683
8.173491,1514,16731,19952
8.174691,426,16467,17892
8.175892,-112,15998,17041
8.177092,-1034,15106,15793
8.178293,-2131,14848,14140
8.179493,-2727,13933,13117
8.180693,-3979,12801,11149
8.181894,-5533,12046,9086
8.183094,-6542,10842,6933
8.184295,-7182,9435,5732
8.185495,-8371,8301,3327
8.186696,-9437,7470,1024
8.187896,-10149,6062,-153
8.189097,-10204,5236,-2063
8.190297,-10696,4484,-4388
8.191498,-11244,3190,-6365
8.192698,-11338,2016,-7293
8.193899,-11515,1403,-9199
8.195099,-11442,160,-11149
8.217798,-11317,-1124,-12114
8.218999,-11145,-2197,-13873
8.220199,-10713,-2810,-15344
8.221400,-10130,-3768,-16842
8.222600,-9909,-4809,-17607
8.223801,-9176,-5232,-19105
8.225001,-8330,-6197,-20368
8.226202,-7959,-7036,-20899
8.227402,-7226,-7861,-21830
8.228603,-6440,-8195,-22662
8.229803,-5476,-8776,-23351
8.231004,-4980,-9477,-23650
8.232204,-4221,-9784,-23906
8.233405,-3532,-10397,-23829
8.234605,-3290,-10944,-23666
8.235806,-2906,-11101,-22933
8.237006,-2676,-11386,-21582
8.238207,-2784,-11776,-20134
8.239407,-2434,-11403,-19190
8.240608,-2174,-11395,-17413
8.217960,-2102,-11067,-15832
8.219161,-2168,-10563,-14996
8.220361,-2221,-9629,-13147
8.221562,-2195,-9242,-11465
8.222762,-2222,-8457,-10727
8.223963,-2327,-7535,-9330
8.225163,-2399,-7125,-8069
8.226364,-2534,-6303,-6968
8.227564,-2608,-5558,-6385
8.228765,-2780,-4944,-5435
8.229965,-2965,-4544,-4797
8.231165,-2985,-3810,-4509
8.232366,-2951,-3101,-3975
8.233566,-2880,-2778,-3540
8.234767,-2727,-2158,-3345
8.235967,-2667,-1702,-3340
8.237168,-2517,-1518,-3310
8.238368,-2404,-1238,-3386
8.239569,-2337,-955,-3466
8.240769,-2166,-690,-3606
8.263973,-2020,-605,-3595
8.265173,-1985,-409,-3664
8.266374,-1942,-182,-3707
8.267574,-1841,-91,-3788
8.268775,-1620,81,-3891
8.269975,-1469,321,-3931
8.271176,-1168,499,-3842
8.272376,-966,639,-3521
8.273576,-869,1019,-3026
8.274777,-587,1459,-2637
8.275977,-381,1729,-1853
8.277178,-221,2307,-751
8.278378,-95,3048,-128
8.279579,-133,3902,1621
8.280779,-173,4327,3579
8.281980,-158,5335,5580
8.283180,63,6412,6549
8.284381,355,6945,8497
8.285581,600,7971,10455
8.286782,686,9000,11430
8.313245,968,10030,13096
8.314445,1322,10499,14315
8.315646,1760,11454,14755
8.316846,1938,12387,15279
8.318047,2433,12810,15179
8.319247,2878,13494,14511
8.320448,2991,13908,14027
8.321648,2865,13983,13149
8.322849,2425,14066,12490
8.324049,1922,14081,12125
8.325250,1667,13817,11470
8.326450,1039,13587,10811
8.327651,231,13059,9689
8.328851,-195,12363,8968
8.330051,-1085,11708,7532
8.331252,-1894,11100,6065
8.332452,-2317,10040,5287
8.333653,-3113,8950,3628
8.334853,-3881,8357,1838
8.336054,-4358,7349,88
8.379750,-4587,6294,-714
8.380950,-5033,5230,-2293
8.382151,-5378,4641,-3889
8.383351,-5513,3579,-4650
8.384551,-5664,2545,-6154
8.385752,-5789,2044,-7554
8.386952,-5838,1030,-8737
8.388153,-5835,-3,-9550
8.389353,-5746,-418,-10745
8.390554,-5566,-1410,-11809
8.391754,-5444,-2366,-12344
8.392955,-5273,-3288,-13393
8.394155,-5001,-3700,-14408
8.395356,-4847,-4426,-15340
8.396556,-4413,-5124,-15514
8.397757,-3985,-5468,-16108
8.398957,-3541,-6064,-16602
8.400158,-3301,-6562,-16808
8.401358,-2945,-7058,-16953
8.402559,-2606,-7254,-16982
8.427981,-2182,-7639,-16675
8.429182,-2193,-7953,-16674
8.430382,-1980,-8158,-16246
8.431583,-1822,-8325,-15580
8.432783,-1799,-8482,-15197
8.433984,-1789,-8519,-14219
8.435184,-1622,-8352,-12996
8.436385,-1516,-8195,-12404
8.437585,-1461,-7889,-11593
8.438786,-1634,-7653,-10678
8.439986,-1613,-7347,-9255
8.441187,-1616,-6862,-8709
8.442387,-1272,-5919,-8059
8.443588,-992,-5436,-7278
8.444788,-966,-4501,-6874
8.445989,-982,-3807,-6293
8.447189,-1057,-3542,-5844
8.448390,-1134,-2993,-5275
8.449590,-1215,-2592,-4996
8.450791,-1420,-2144,-4680
8.475134,-1481,-1998,-4633
8.476335,-1492,-1608,-4665
8.477535,-1495,-1291,-4796
8.478736,-1436,-1125,-5123
8.479936,-1287,-821,-5512
8.481137,-1232,-562,-5689
8.482337,-1165,-430,-6074
8.483538,-1121,-197,-6504
8.484738,-1116,-11,-6675
8.485939,-1123,200,-7006
8.487139,-1106,301,-7290
8.488340,-1082,490,-7616
8.489540,-1075,619,-7503
8.490741,-1076,666,-7652
8.491941,-1113,724,-7720
8.493142,-1114,732,-7738
8.494342,-1160,715,-7663
8.495543,-1211,737,-7465
8.496743,-1245,783,-7342
8.497944,-1227,864,-7039
8.500099,-1156,896,-6621
8.501300,-1057,966,-6189
8.502500,-1003,1070,-5979
8.503701,-832,1225,-5553
8.504901,-500,1276,-4940
8.506102,-56,1474,-4032
8.507302,16,1757,-3553
8.508503,188,1921,-2210
8.509703,202,2360,-319
8.510904,142,2850,850
8.512104,-41,3395,3452
8.513305,-306,3751,6305
8.514505,-26,4527,8897
8.515706,-45,5291,9976
8.516906,355,5627,12043
8.518107,807,6293,13656
8.519307,1081,6971,15215
8.520508,1644,7573,15809
8.521708,2138,8053,16885
8.522909,2322,8742,17325
8.553909,2536,9376,17943
8.555109,2554,9758,18330
8.556309,2566,10648,18120
8.557510,2559,11489,17654
8.558710,2242,11965,16165
8.559911,1576,11808,14338
8.561111,1236,11686,13555
8.562312,654,11359,12377
8.563512,-38,11139,11077
8.564713,-715,10776,9349
8.565913,-1161,10158,8460
8.567114,-1926,9596,6729
8.568314,-2660,9129,4933
8.569515,-3011,8343,3984
8.570715,-3661,7522,2055
8.571916,-4254,7138,219
8.573116,-4707,6281,-1702
8.574317,-4922,5520,-2469
8.575517,-5238,5131,-4300
8.576718,-5531,4235,-5902
8.554049,-5665,3358,-6697
8.555249,-5792,2479,-8409
8.556450,-5796,2021,-9982
8.557650,-5830,1084,-11496
8.558851,-5739,220,-12101
8.560051,-5453,-167,-13452
8.561252,-5120,-1002,-14627
8.562452,-4956,-1875,-15179
8.563653,-4635,-2641,-16126
8.564853,-4293,-3055,-17044
8.566054,-3908,-3862,-17920
8.567254,-3831,-4549,-18070
8.568454,-3471,-4861,-18588
8.569655,-3110,-5423,-18898
8.570855,-2958,-5952,-18991
8.572056,-2714,-6441,-18983
8.573256,-2531,-6675,-18872
8.574457,-2428,-7103,-18518
8.575657,-2236,-7558,-18544
8.576858,-2067,-7763,-18011
8.598936,-1873,-8061,-17087
8.600137,-1718,-8100,-16465
8.601337,-1499,-7883,-15025
8.602538,-1430,-7710,-13405
8.603738,-1399,-7159,-12652
8.604939,-1417,-6519,-11282
8.606139,-1401,-6199,-10117
8.607340,-1444,-5608,-9089
8.608540,-1502,-5045,-8560
8.609740,-1643,-4510,-7657
8.610941,-1757,-4254,-6961
8.612141,-1822,-3799,-6676
8.613342,-1952,-3367,-6204
8.614542,-2016,-3135,-5812
8.615743,-1956,-2643,-5524
8.616943,-1918,-2166,-5409
8.618144,-1776,-1659,-5328
8.619344,-1616,-1477,-5267
8.620545,-1514,-1121,-5244
8.621745,-1374,-820,-5252
8.644186,-1297,-722,-5310
8.645386,-1247,-492,-5258
8.646587,-1190,-308,-5093
8.647787,-1141,-204,-4978
8.648988,-1089,70,-4870
8.650188,-1074,284,-4796
8.651389,-1030,461,-4473
8.652589,-798,539,-4233
8.653790,-545,743,-3870
8.654990,-488,968,-3859
8.656190,-225,1000,-3325
8.657391,-20,1171,-2686
8.658591,5,1456,-2322
8.659792,39,1687,-1354
8.660992,125,1850,-441
8.662193,430,2190,277
8.663393,334,2575,843
8.664594,673,2748,1681
8.665794,1062,3170,2675
8.666995,1218,3705,3304
8.707264,1383,4529,4929
8.708465,1466,4783,7025
8.709665,1537,5756,9237
8.710866,1676,6636,10607
8.712066,1824,7075,12699
8.713267,1930,7843,14328
8.714467,1998,8428,14960
8.715668,2087,9208,15786
8.716868,2269,9282,15993
8.718069,2377,9945,15727
8.719269,2570,10380,14313
