# t,ax,ay,az (t in seconds since start)
0.000000,3501,1564,-761
0.001200,3492,1546,-780
0.002401,3496,1538,-771
0.003601,3490,1514,-781
0.004802,3494,1461,-759
0.006002,3486,1473,-731
0.007203,3486,1466,-699
0.008403,3496,1492,-687
0.009604,3503,1528,-699
0.010804,3518,1563,-711
0.012005,3525,1634,-683
0.013205,3554,1721,-577
0.014406,3556,1747,-462
0.015606,3556,1814,-402
0.016807,3553,1874,-411
0.018007,3579,1929,-400
0.019208,3595,1963,-345
0.020408,3597,1966,-307
0.021609,3611,1982,-277
0.022809,3613,1996,-262
0.000169,3637,1984,-243
0.001369,3627,1948,-243
0.002570,3622,1895,-278
0.003770,3627,1867,-343
0.004971,3618,1827,-372
0.006171,3623,1783,-472
0.007372,3593,1765,-545
0.008572,3565,1711,-629
0.009773,3578,1680,-662
0.010973,3562,1683,-730
0.012174,3547,1671,-776
0.013374,3530,1653,-795
0.014575,3501,1663,-808
0.015775,3496,1667,-805
0.016976,3475,1671,-844
0.018176,3460,1660,-849
0.019376,3453,1662,-877
0.020577,3423,1665,-890
0.021777,3432,1668,-911
0.022978,3415,1691,-949
0.098554,3415,1706,-991
0.099755,3411,1753,-1040
0.100955,3404,1784,-1077
0.102156,3412,1813,-1207
0.103356,3392,1896,-1259
0.104557,3382,1968,-1230
0.105757,3408,2049,-1183
0.106958,3419,2135,-1134
0.108158,3451,2266,-1131
0.109359,3457,2434,-1132
0.110559,3488,2754,-1133
0.111760,3500,2618,-1049
0.112960,3496,2712,-1019
0.114161,3503,2774,-1022
0.115361,3525,2799,-1020
0.116562,3548,2862,-981
0.117762,3564,2918,-951
0.118962,3559,2931,-837
0.120163,3596,2922,-785
0.121363,3574,2859,-769
0.098779,3529,2761,-816
0.099980,3534,2678,-946
0.101180,3505,2521,-1280
0.102381,3485,2336,-1178
0.103581,3465,2243,-1291
0.104782,3458,2091,-1343
0.105982,3444,2004,-1375
0.107182,3422,1965,-1372
0.108383,3394,1960,-1378
0.109583,3374,1988,-1363
0.110784,3368,2004,-1349
0.111984,3362,2029,-1330
0.113185,3350,2055,-1289
0.114385,3353,2058,-1277
0.115586,3330,2045,-1255
0.116786,3365,2019,-1215
0.117987,3340,1969,-1193
0.119187,3354,1919,-1162
0.120388,3376,1897,-1147
0.121588,3377,1862,-1113
0.158536,3360,1856,-1084
0.159737,3385,1844,-1060
0.160937,3403,1844,-1007
0.162138,3414,1865,-973
0.163338,3431,1908,-922
0.164539,3453,1921,-864
0.165739,3463,1949,-826
0.166940,3472,1965,-792
0.168140,3495,1964,-789
0.169341,3501,1951,-769
0.170541,3518,1923,-755
0.171741,3520,1894,-740
0.172942,3518,1876,-769
0.174142,3516,1875,-775
0.175343,3503,1871,-768
0.176543,3507,1871,-788
0.177744,3506,1906,-804
0.178944,3503,1941,-774
0.180145,3512,1993,-738
0.181345,3509,2026,-715
0.158698,3523,2076,-679
0.159899,3539,2143,-664
0.161099,3560,2176,-618
0.162300,3566,2201,-588
0.163500,3568,2214,-593
0.164701,3554,2188,-624
0.165901,3558,2168,-676
0.167102,3555,2129,-732
0.168302,3543,2098,-762
0.169503,3513,2075,-778
0.170703,3529,2040,-812
0.171904,3518,2017,-820
0.173104,3504,1982,-824
0.174305,3499,1981,-867
0.175505,3487,1972,-862
0.176706,3472,1968,-883
0.177906,3469,1973,-917
0.179107,3456,1970,-926
0.180307,3444,1979,-943
0.181508,3445,1961,-945
0.211338,3433,1960,-964
0.212539,3446,1974,-961
0.213739,3437,1982,-939
0.214940,3450,1990,-908
0.216140,3434,1985,-909
0.217341,3447,2000,-899
0.218541,3467,2020,-901
0.219742,3474,2018,-881
0.220942,3486,2016,-862
0.222143,3488,2026,-882
0.223343,3493,2030,-896
0.224544,3492,2020,-930
0.225744,3511,2012,-935
0.226945,3495,2008,-951
0.228145,3507,1967,-964
0.229346,3498,1958,-971
0.230546,3490,1949,-957
0.231746,3503,1944,-980
0.232947,3499,1964,-957
0.234147,3499,1991,-962
0.211492,3504,2013,-983
0.212693,3490,2025,-1002
0.213893,3489,2067,-992
0.215094,3491,2077,-1003
0.216294,3471,2068,-1027
0.217495,3475,2062,-1032
0.218695,3475,2032,-1058
0.219896,3468,2004,-1065
0.221096,3466,1979,-1072
0.222297,3451,1950,-1079
0.223497,3464,1930,-1076
0.224698,3453,1928,-1058
0.225898,3452,1924,-1054
0.227099,3437,1942,-1038
0.228299,3456,1961,-986
0.229500,3465,1987,-935
0.230700,3470,2029,-914
0.231900,3474,2060,-840
0.233101,3498,2083,-792
0.234301,3491,2125,-760
0.241421,3512,2190,-739
0.242621,3517,2204,-729
0.243821,3498,2223,-762
0.245022,3493,2215,-799
0.246222,3500,2158,-855
0.247423,3484,2129,-913
0.248623,3505,2034,-951
0.249824,3489,1957,-994
0.251024,3492,1927,-1004
0.252225,3488,1912,-1005
0.253425,3483,1905,-989
0.254626,3474,1910,-986
0.255826,3473,1925,-965
0.257027,3470,1957,-946
0.258227,3479,1964,-927
0.259428,3465,1969,-886
0.260628,3491,1994,-855
0.261829,3481,2005,-851
0.263029,3487,2000,-818
0.264230,3494,2008,-794
0.303967,3492,2003,-784
0.305168,3503,2009,-765
0.306368,3513,2017,-726
0.307569,3512,2017,-705
0.308769,3504,2025,-724
0.309970,3519,2036,-721
0.311170,3512,2038,-684
0.312370,3525,2050,-682
0.313571,3532,2079,-630
0.314771,3536,2090,-598
0.315972,3562,2126,-578
0.317172,3548,2142,-600
0.318373,3533,2134,-669
0.319573,3539,2118,-766
0.320774,3520,2046,-811
0.321974,3508,1984,-881
0.323175,3501,1933,-959
0.324375,3481,1892,-986
0.325576,3481,1894,-1011
0.326776,3495,1911,-1044
0.357930,3475,1968,-1059
0.359131,3467,2009,-1046
0.360331,3472,2069,-1042
0.361532,3468,2090,-1024
0.362732,3464,2138,-951
0.363933,3462,2170,-923
0.365133,3455,2187,-990
0.366334,3443,2139,-1108
0.367534,3448,2078,-1185
0.368735,3443,1991,-1272
0.369935,3423,1955,-1303
0.371135,3433,1909,-1280
0.372336,3435,1895,-1271
0.373536,3430,1921,-1227
0.374737,3427,1986,-1188
0.375937,3434,2049,-1177
0.377138,3407,2117,-1112
0.378338,3440,2143,-993
0.379539,3472,2179,-934
0.380739,3483,2222,-796
0.410991,3522,2236,-651
0.412192,3566,2236,-472
0.413392,3579,2214,-372
0.414593,3643,2189,-177
0.415793,3701,2157,169
0.416994,3802,2084,678
0.418194,3802,1924,825
0.419395,3842,1891,1015
0.420595,4025,1871,1847
0.421796,4088,1837,2307
0.422996,4144,1780,3160
0.424197,4176,1782,3660
0.425397,4202,1874,3846
0.426598,4256,1934,4191
0.427798,4305,1938,4578
0.428999,4336,1951,4940
0.430199,4332,1950,5101
0.431399,4335,1994,5264
0.432600,4350,2064,5428
0.433800,4355,2198,5465
0.454608,4348,2331,5292
0.455808,4292,2349,4949
0.457009,4178,2405,4514
0.458209,4103,2323,4274
0.459410,3984,2238,3671
0.460610,3807,2064,2755
0.461811,3743,1874,1683
0.463011,3584,1568,1125
0.464212,3488,1388,162
0.465412,3351,901,-631
0.466613,3293,455,-994
0.467813,3214,238,-1667
0.469013,3452,-77,-2292
0.470214,3515,86,-2942
0.471414,3329,421,-3308
0.472615,3127,645,-3807
0.473815,2990,982,-4239
0.475016,2954,1257,-4425
0.476216,2861,1322,-4736
0.477417,2844,1505,-5104
0.500136,2782,1672,-5267
0.501337,2672,1889,-5558
0.502537,2518,1940,-5779
0.503738,2425,2070,-5949
0.504938,2380,2121,-6088
0.506139,2326,2067,-6269
0.507339,2247,1998,-6453
0.508540,2252,1946,-6555
0.509740,2171,1949,-6773
0.510941,2042,1940,-6901
0.512141,1945,1894,-6962
0.513342,1906,1855,-7066
0.514542,1887,1836,-7211
0.515743,1838,1973,-7304
0.516943,1808,2180,-7296
0.518144,1802,2422,-7427
0.519344,1736,2503,-7336
0.520545,1700,2592,-7199
0.521745,1704,2636,-7098
0.522946,1750,2667,-7012
0.551061,1788,2683,-6892
0.552261,1831,2658,-6874
0.553462,1801,2652,-6621
0.554662,1786,2572,-6498
0.555863,1789,2459,-6176
0.557063,1808,2347,-6124
0.558264,1798,2284,-5782
0.559464,1816,2247,-5427
0.560665,1801,2217,-5274
0.561865,1826,2207,-4902
0.563066,1789,2219,-4571
0.564266,1536,2266,-4103
0.565466,1783,2349,-4039
0.566667,1822,2459,-3668
0.567867,1885,2556,-3254
0.569068,1989,2712,-3102
0.570268,2105,2843,-2617
0.571469,2235,3143,-2058
0.572669,2533,3457,-1551
0.573870,2415,3740,-1302
0.551186,2593,3895,-810
0.552387,2782,4129,-180
0.553587,2894,4220,157
0.554788,3088,4236,1146
0.555988,3344,4214,2333
0.557189,3754,4119,2978
0.558389,3818,3961,4378
0.559590,4151,3868,5766
0.560790,4463,3680,6697
0.561991,4605,3527,6973
0.563191,4861,3456,7176
0.564392,5096,3321,7167
0.565592,5175,3104,7189
0.566793,5275,2804,7418
0.567993,5338,2640,7840
0.569193,5427,2358,8470
0.570394,5450,2196,8832
0.571594,5483,2147,9283
0.572795,5391,2100,9367
0.573995,5320,2079,9309
0.585106,5138,2031,8879
0.586306,4968,1988,7998
0.587507,4780,1805,6775
0.588707,4671,1509,6137
0.589908,4490,1349,4806
0.591108,4256,872,3551
0.592309,4137,316,2960
0.593509,3872,-264,1874
0.594710,3666,-560,955
0.595910,3571,-1098,9
0.597111,3528,-1524,-342
0.598311,3440,-1652,-889
0.599512,3228,-1679,-1304
0.600712,3091,-1405,-1471
0.601913,2902,-982,-1684
0.603113,2799,-820,-1976
0.604314,2631,-569,-2080
0.605514,2556,-377,-2135
0.606715,2425,-295,-2254
0.607915,2302,-220,-2556
0.657277,2254,-147,-2719
0.658478,2154,-48,-3126
0.659678,2075,39,-3669
0.660879,2044,211,-4225
0.662079,1988,445,-4638
0.663280,1953,579,-5286
0.664480,1910,858,-6004
0.665681,1904,1115,-6251
0.666881,1874,1516,-6648
0.668082,1834,1424,-6829
0.669282,1841,1583,-6845
0.670483,1886,1750,-6840
0.671683,1943,1839,-6753
0.672884,1949,2088,-6628
0.674084,1969,2347,-6449
0.675285,2074,2791,-6331
0.676485,2118,2804,-6112
0.677686,2175,2945,-6030
0.678886,2182,2987,-6001
0.680087,2204,2943,-5919
0.657411,2247,2910,-6002
0.658611,2272,2906,-6004
0.659812,2339,2846,-6018
0.661012,2279,2887,-6068
0.662213,2289,2875,-6058
0.663413,2250,2903,-5997
0.664614,2294,2916,-5956
0.665814,2367,2973,-5810
0.667015,2331,3071,-5758
0.668215,2390,3123,-5694
0.669416,2389,3216,-5561
0.670616,2381,3273,-5451
0.671817,2388,3305,-5317
0.673017,2467,3370,-5029
0.674218,2519,3470,-4850
0.675418,2534,3570,-4757
0.676619,2540,3651,-4444
0.677819,2572,3718,-4137
0.679019,2624,3831,-3937
0.680220,2700,3956,-3451
0.689722,2809,4017,-2917
0.690923,2897,4188,-2385
0.692123,2933,4293,-2145
0.693324,2979,4343,-1713
0.694524,3075,4504,-1269
0.695724,3050,4556,-1156
0.696925,3092,4514,-814
0.698125,3182,4441,-530
0.699326,3260,4205,-177
0.700526,3327,3950,-121
0.701727,3342,3798,-3
0.702927,3381,3521,79
0.704128,3389,3274,126
0.705328,3380,2974,209
0.706529,3383,2807,457
0.707729,3405,2508,938
0.708930,3365,2198,1173
0.710130,3421,2047,1882
0.711331,3447,1831,2668
0.712531,3493,1564,3051
0.736483,3459,1261,3624
0.737683,3534,1120,4043
0.738884,3818,981,3849
0.740084,3600,841,3836
0.741285,3612,808,3372
0.742485,3621,692,2927
0.743686,3622,621,2765
0.744886,3692,574,2442
0.746087,3780,509,2265
0.747287,3802,472,2170
0.748488,3910,510,2007
0.749688,4013,578,1782
0.750889,4070,653,1568
0.752089,4122,718,1423
0.753290,4162,787,1128
0.754490,4152,776,928
0.755691,4183,828,867
0.756891,4185,838,696
0.758092,4217,825,657
0.759292,4189,806,680
0.785061,4193,810,752
0.786261,4123,800,798
0.787462,4051,799,834
0.788662,4009,861,865
0.789863,3936,945,798
0.791063,3793,1009,570
0.792263,3714,1160,320
0.793464,3626,1264,205
0.794664,3605,1358,108
0.795865,3470,1498,-186
0.797065,3451,1622,-378
0.798266,3306,1637,-624
0.799466,3133,1595,-1006
0.800667,3155,1542,-1064
0.801867,3123,1517,-1522
0.803068,3038,1481,-1904
0.804268,2989,1408,-2320
0.805469,2962,1408,-2555
0.806669,2860,1369,-3023
0.807870,2840,1399,-3446
0.785214,2742,1426,-3990
0.786414,2710,1413,-4163
0.787615,2606,1328,-4479
0.788815,2449,1151,-4898
0.790016,2410,995,-5012
0.791216,2381,962,-5558
0.792417,2215,858,-6015
0.793617,2252,988,-6287
0.794817,2151,999,-6613
0.796018,2059,1023,-6872
0.797218,2100,1109,-6931
0.798419,2018,1166,-7068
0.799619,2064,1498,-6677
0.800820,1840,1300,-6852
0.802020,1836,1254,-6580
0.803221,1750,1124,-6863
0.804421,1795,1053,-6546
0.805622,1809,1086,-6965
0.806822,1774,1175,-6961
0.808023,1795,1491,-6976
0.830420,1744,1367,-6957
0.831621,1703,1393,-6684
0.832821,1702,1396,-6620
0.834022,1670,1432,-6363
0.835222,1647,1395,-6121
0.836423,1669,1396,-6048
0.837623,1695,1431,-5914
0.838824,1755,1486,-5878
0.840024,2035,1581,-5876
0.841225,1845,1765,-5870
0.842425,1853,1887,-5761
0.843626,1802,2071,-5597
0.844826,1785,2236,-5480
0.846026,1774,2312,-5175
0.847227,1815,2461,-4826
0.848427,1877,2590,-4638
0.849628,1974,2790,-4172
0.850828,2034,2822,-3576
0.852029,2232,2995,-2684
0.853229,2325,3088,-2275
0.877614,2531,3170,-1480
0.878815,2811,3428,-599
0.880015,2959,3686,-217
0.881215,3243,4006,527
0.882416,3511,4170,1445
0.883616,3800,4562,2434
0.884817,4063,4928,2961
0.886017,6633,5788,-1481
0.887218,4389,1316,8865
0.888418,2966,2431,9101
0.889619,4153,4631,7564
0.890819,5359,4897,8723
0.892020,5066,5310,9553
0.893220,5075,6435,9567
0.894421,5240,6888,9409
0.895621,5295,7532,8608
0.896822,5279,7394,8129
0.898022,5075,6486,7229
0.899223,4743,5859,6522
0.900423,4584,4602,5681
0.931953,4372,3318,5487
0.933153,4215,2763,4751
0.934354,4050,1749,4109
0.935554,4001,847,3700
0.936755,3852,208,2717
0.937955,3752,-123,1629
0.939156,3515,-721,691
0.940356,3411,-1117,107
0.941557,3286,-1356,-856
0.942757,3293,-1713,-1217
0.943958,3276,-1980,-1588
0.945158,3203,-1970,-2111
0.946359,3131,-1915,-2188
0.947559,2819,-1614,-2132
0.948760,2939,-1297,-2164
0.949960,2785,-1161,-2089
0.951161,2668,-1018,-1923
0.952361,2658,-892,-1856
0.953562,2610,-893,-1885
0.954762,2599,-797,-1889
0.983714,2599,-671,-1928
0.984914,2580,-522,-2067
0.986115,2570,-447,-2364
0.987315,2585,-280,-2779
0.988516,2595,-73,-2998
0.989716,2593,64,-3581
0.990917,2611,295,-4192
0.992117,2601,487,-4473
0.993318,2587,592,-5058
0.994518,2560,630,-5594
0.995719,2537,659,-6016
0.996919,2550,667,-6187
0.998120,2549,671,-6456
0.999320,2527,749,-6620
1.000521,2522,873,-6628
1.001721,2481,1054,-6551
1.002922,2417,1145,-6400
1.004122,2340,1301,-6330
1.005323,2300,1407,-6254
1.006523,2264,1458,-6292
1.032419,2244,1575,-6361
1.033619,2233,1716,-6385
1.034820,2214,1843,-6325
1.036020,2208,1909,-6191
1.037221,2220,2113,-6090
1.038421,2235,2335,-5847
1.039622,2248,2451,-5610
1.040822,2284,2745,-5335
1.042023,2309,3038,-5192
1.043223,2406,3450,-4818
1.044424,2512,3526,-4347
1.045624,2588,3877,-3839
1.046825,2690,4198,-3562
1.048025,2790,4347,-3068
1.049226,2874,4604,-2569
1.050426,2904,4776,-2331
1.051627,3027,4824,-1859
1.052827,3150,4859,-1336
1.054028,3251,4802,-1079
1.055228,3457,4691,-532
1.061896,3666,4652,52
1.063096,3878,4531,768
1.064297,3956,4410,1152
1.065497,4136,4378,1919
1.066698,4302,4354,2644
1.067898,4361,4399,2920
1.069099,4431,4470,3434
1.070299,4472,4503,3920
1.071500,4505,4544,4349
1.072700,4489,4513,4558
1.073901,4501,4468,4998
1.075101,4439,4271,5367
1.076302,4409,3924,5466
1.077502,4335,3450,5280
1.078703,4226,3185,4614
1.079903,4136,2646,3851
1.081104,4075,2093,3599
1.082304,3991,1306,3260
1.083504,3714,1238,3049
1.084705,3648,711,3006
1.125992,3623,456,2255
1.127192,3486,382,1685
1.128393,3429,289,840
1.129593,3383,176,598
1.130794,3355,98,132
1.131994,3301,-13,-621
1.133195,3232,-191,-959
1.134395,3292,-399,-1082
1.135596,3315,-392,-1113
1.136796,3270,-404,-1430
1.137997,3240,-342,-1382
1.139197,3200,-317,-1388
1.140398,3178,-251,-1349
1.141598,3187,-170,-1329
1.142799,3227,-47,-1247
1.143999,3211,24,-1266
1.145200,3203,178,-1237
1.146400,3223,346,-1281
1.147601,3212,428,-1293
1.148801,3206,644,-1355
1.126115,3225,820,-1387
1.127315,3249,993,-1497
1.128516,3256,1078,-1511
1.129716,3293,1229,-1783
1.130916,3320,1338,-1621
1.132117,3316,1430,-1721
1.133317,3289,1509,-1887
1.134518,3273,1610,-2004
1.135718,3253,1604,-2290
1.136919,3225,1723,-2750
1.138119,3206,1821,-2930
1.139320,3208,1774,-3467
1.140520,3139,1958,-3774
1.141721,3006,2205,-4397
1.142921,2997,2238,-4605
1.144122,2904,2183,-5146
1.145322,2810,2139,-5532
1.146523,2575,2153,-5907
1.147723,2717,2282,-6464
1.148924,2626,2347,-6930
1.174708,2498,2457,-7293
1.175909,2440,2384,-7326
1.177109,2337,2080,-7364
1.178310,2261,2191,-7269
1.179510,2218,2113,-7318
1.180711,2154,2015,-7316
1.181911,2094,2027,-7208
1.183112,1994,1847,-7065
1.184312,2007,1669,-6988
1.185513,1967,1631,-6666
1.186713,1941,1525,-6445
1.187914,1947,1453,-6283
1.189114,1970,1384,-5976
1.190315,1991,1327,-5572
1.191515,2037,1184,-5145
1.192716,2108,1096,-4961
1.193916,2177,1074,-4437
1.195117,2294,980,-3996
1.196317,2322,939,-3790
1.197517,2458,971,-3377
1.221484,2560,1021,-2976
1.222685,2684,1202,-2515
1.223885,2734,1431,-2415
1.225086,2763,1542,-2185
1.226286,2794,1843,-1836
1.227487,2802,2183,-1681
1.228687,2684,2671,-1590
1.229888,2081,3186,-2725
1.231088,1911,5710,-1567
1.232289,2512,6494,-1258
1.233489,2774,6534,-1531
1.234690,3014,6283,-1051
1.235890,3137,5727,-741
1.237091,3477,4936,82
1.238291,3793,4630,985
1.239492,4209,3869,1967
1.240692,4634,3304,1798
1.241893,5064,1792,7005
1.243093,5135,-67,10155
1.244294,5372,197,10918
1.271430,5467,293,12131
1.272631,5042,555,12118
1.273831,4556,1318,11607
1.275032,4428,2609,10207
1.276232,4591,3188,8865
1.277432,4513,4003,8313
1.278633,4440,4095,8077
1.279833,4246,3748,7491
1.281034,4031,3552,7066
1.282234,3937,2967,6710
1.283435,3794,2376,5969
1.284635,3701,2084,5392
1.285836,3659,1618,4811
1.287036,3595,1025,4115
1.288237,3409,638,3044
1.289437,3489,462,2696
1.290638,3510,231,2328
1.291838,3411,61,1337
1.293039,3226,-58,557
1.294239,3124,-212,-62
1.318424,3043,-434,-385
1.319625,2924,-478,-957
1.320825,2821,-552,-1402
1.322026,2759,-601,-1628
1.323226,2662,-545,-2100
1.324427,2603,-593,-2507
1.325627,2610,-385,-2612
1.326828,2621,-127,-2937
1.328028,2546,9,-3346
1.329229,2510,294,-3606
1.330429,2521,572,-3736
1.331630,2523,773,-3999
1.332830,2548,868,-4295
1.334031,2582,1024,-4729
1.335231,2588,1090,-4809
1.336432,2614,1098,-5171
1.337632,2630,1095,-5650
1.338833,2622,1092,-5830
1.340033,2685,1089,-6262
1.341233,2683,1092,-6677
1.362520,2744,1170,-7101
1.363721,2739,1203,-7211
1.364921,2672,1272,-7475
1.366122,2573,1421,-7711
1.367322,2510,1615,-7777
1.368523,2491,1759,-7902
1.369723,2379,1829,-7922
1.370924,2378,1978,-7943
1.372124,2316,2110,-7850
1.373325,2215,2138,-7613
1.374525,2177,2211,-7528
1.375726,2133,2194,-7451
1.376926,2140,2224,-7373
1.378127,2124,2227,-7297
1.379327,2133,2326,-7217
1.380527,2105,2523,-7191
1.381728,2024,2624,-6981
1.382928,1950,2845,-6755
1.384129,1895,3014,-6579
1.385329,1827,3149,-6245
1.410733,1783,3336,-5714
1.411934,1765,3496,-5500
1.413134,1723,3693,-5024
1.414335,1736,3809,-4504
1.415535,1783,4008,-4119
1.416736,1895,4301,-3928
1.417936,2033,4730,-3544
1.419137,2173,4764,-3215
1.420337,2248,4984,-3037
1.421538,2400,5124,-2697
1.422738,2537,5161,-2425
1.423939,2656,5148,-2174
1.425139,2703,4995,-2097
1.426340,2762,4670,-1964
1.427540,2780,4732,-1810
1.428741,2840,4650,-1817
1.429941,2841,4374,-1597
1.431142,3069,4280,-1192
1.432342,3232,4015,-716
1.433543,3307,3747,-517
1.410851,3472,3633,94
1.412052,3667,3453,840
1.413252,3712,3327,1293
1.414453,3955,3276,2402
1.415653,4259,3223,3956
1.416854,4416,3100,5836
1.418054,4464,2917,6545
1.419255,4466,2841,8220
1.420455,4415,2635,9464
1.421656,4377,2426,9772
1.422856,4234,2338,9704
1.424057,4111,2390,8884
1.425257,4043,2571,8202
1.426458,3930,2589,8309
1.427658,3791,2534,8407
1.428859,3672,2513,8319
1.430059,3633,2498,8206
1.431260,3499,2474,7427
1.432460,3319,2363,6562
1.433661,3261,2151,5512
1.410921,3219,1824,4892
1.412121,3222,1573,3678
1.413322,3175,920,2323
1.414522,3186,290,1676
1.415723,3151,-309,643
1.416923,3143,-693,-266
1.418124,3116,-1314,-705
1.419324,3124,-1772,-1371
1.420525,3099,-1966,-1942
1.421725,3132,-2202,-2352
1.422926,3173,-2283,-2537
1.424126,3159,-2291,-2843
1.425327,3185,-2163,-2949
1.426527,3191,-1959,-3021
1.427728,3196,-1651,-3133
1.428928,3197,-1492,-3132
1.430129,3182,-1086,-3061
1.431329,3181,-665,-3042
1.432530,3154,-449,-2978
1.433730,3129,-74,-2916
1.456829,3123,268,-2943
1.458030,3114,554,-3064
1.459230,3099,694,-3393
1.460431,3018,914,-3787
1.461631,3055,1139,-4021
1.462832,3181,1215,-4547
1.464032,3100,1256,-4898
1.465233,3102,1245,-5015
1.466433,3004,1285,-5161
1.467634,2945,1308,-5346
1.468834,2859,1379,-5466
1.470035,2807,1446,-5733
1.471235,2717,1501,-6025
1.472436,2624,1597,-6255
1.473636,2619,1666,-6402
1.474837,2542,1734,-6585
1.476037,2509,1715,-6728
1.477237,2484,1778,-6768
1.478438,2493,1817,-6820
1.479638,2534,1825,-6764
1.504738,2522,1803,-6681
1.505939,2506,1797,-6616
1.507139,2491,1819,-6588
1.508340,2450,1864,-6429
1.509540,2436,1955,-6363
1.510740,2417,2145,-6195
1.511941,2402,2246,-5928
1.513141,2417,2512,-5645
1.514342,2445,2787,-5500
1.515542,2476,2998,-5108
1.516743,2507,3132,-4691
1.517943,2512,3322,-4225
1.519144,2578,3430,-3947
1.520344,2639,3478,-3426
1.521545,2704,3596,-2813
1.522745,2738,3680,-2521
1.523946,2780,3735,-1930
1.525146,2842,3864,-1408
1.526347,2889,3991,-1167
1.527547,2935,4122,-720
1.550197,2988,4193,-332
1.551398,3033,4324,1
1.552598,3052,4408,175
1.553798,2987,4478,519
1.554999,2951,4530,1085
1.556199,3464,4832,1647
1.557400,3678,4839,3407
1.558600,3879,4670,5741
1.559801,3982,4154,7793
1.561001,4001,3483,8536
1.562202,4045,2845,9193
1.563402,4072,2595,9157
1.564603,4134,2439,9004
1.565803,4204,2556,9130
1.567004,4226,2553,10217
1.568204,4188,2644,11237
1.569405,4139,2904,11670
1.570605,3942,3356,11981
1.571806,3779,3610,11360
1.573006,3684,4133,10905
1.598118,3565,4428,9855
1.599319,3439,4425,8326
1.600519,3339,4281,6436
1.601720,3308,3769,5693
1.602920,3292,3402,3853
1.604121,3264,2473,2111
1.605321,3222,1468,1346
1.606522,3171,473,77
1.607722,3104,-6,-1043
1.608923,3045,-778,-1811
1.610123,3014,-1404,-2354
1.611324,2956,-1616,-3058
1.612524,2913,-1919,-3653
1.613725,2872,-1947,-3852
1.614925,2815,-1833,-4299
1.616126,2726,-1730,-4746
1.617326,2640,-1461,-5221
1.618527,2561,-1187,-5279
1.619727,2481,-1079,-5706
1.620928,2461,-910,-6047
1.644940,2390,-823,-6322
1.646141,2199,-812,-6819
1.647341,2342,-731,-7343
1.648542,2367,-577,-7906
1.649742,2449,-452,-7926
1.650943,2424,-321,-7989
1.652143,2417,93,-7860
1.653344,2402,526,-7734
1.654544,2343,968,-7532
1.655745,2376,1017,-7504
1.656945,2368,1174,-7511
1.658146,2314,1235,-7599
1.659346,2307,1265,-7742
1.660547,2253,1332,-7877
1.661747,2247,1336,-7925
1.662948,2170,1356,-7924
1.664148,2037,1292,-7887
1.665349,1793,1214,-7827
1.666549,1979,1170,-7746
1.667749,1992,1192,-7635
1.690719,1927,1343,-7681
1.691919,1938,1508,-7657
1.693120,1899,1572,-7626
1.694320,1899,1740,-7615
1.695521,1891,1942,-7626
1.696721,1912,2185,-7498
1.697922,1840,2304,-7257
1.699122,1805,2576,-6933
1.700323,1777,2806,-6724
1.701523,1794,2943,-6159
1.702724,1774,3157,-5536
1.703924,1796,3384,-5175
1.705125,1832,3564,-4304
1.706325,1948,3646,-2814
1.707526,1831,2606,-2243
1.708726,1545,2257,-2517
1.709927,1732,2588,-1545
1.711127,1595,3120,-927
1.712327,1855,4314,-1585
1.713528,2558,4935,-1880
1.690847,2807,5247,-1076
1.692047,2845,5790,-555
1.693248,2823,6136,-501
1.694448,2817,6259,-88
1.695649,2886,6433,213
1.696849,2918,6535,359
1.698050,3041,6552,597
1.699250,3070,6512,749
1.700451,3320,6415,825
1.701651,3132,6250,955
1.702852,3180,6135,1026
1.704052,3210,5846,971
1.705253,3207,5429,952
1.706453,3217,4898,808
1.707654,3159,4635,648
1.708854,3145,4100,285
1.710055,3144,3463,271
1.711255,3077,3141,4338
1.712456,3936,1298,16863
1.713656,4525,-1334,20871
1.737042,4521,-1113,18324
1.738242,4004,101,10947
1.739443,3799,2085,8423
1.740643,3679,3194,8016
1.741844,3632,3468,8042
1.743044,3472,3742,8775
1.744245,3334,3892,8861
1.745445,3183,3968,8510
1.746646,3081,3756,7879
1.747846,3063,3142,7551
1.749047,2990,2193,6641
1.750247,2971,1641,5367
1.751447,2992,681,3781
1.752648,2989,-174,2990
1.753848,3028,-774,1523
1.755049,3000,-1027,42
1.756249,3019,-1260,-601
1.757450,3046,-1418,-1645
1.758650,3044,-1448,-2483
1.759851,3014,-1417,-3123
1.791067,3021,-1321,-3339
1.792268,3004,-1230,-3648
1.793468,2961,-1137,-3851
1.794669,2931,-1021,-3894
1.795869,2971,-916,-3924
1.797070,2974,-836,-3930
1.798270,2907,-635,-3967
1.799470,2904,-390,-4004
1.800671,2882,-246,-4100
1.801871,2876,28,-4199
1.803072,2806,306,-4256
1.804272,2721,458,-4617
1.805473,2654,470,-4802
1.806673,2742,687,-5282
1.807874,2686,711,-5399
1.809074,2653,665,-5520
1.810275,2487,559,-5810
1.811475,2463,588,-5945
1.812676,2420,722,-6242
1.813876,2371,829,-6277
1.838151,2380,1057,-6260
1.839351,2360,1350,-6266
1.840552,2315,1485,-6271
1.841752,2252,1718,-6382
1.842953,2173,1859,-6441
1.844153,2147,1882,-6627
1.845354,2161,1888,-6821
1.846554,2165,1876,-6954
1.847755,2141,1876,-7173
1.848955,2171,1881,-7319
1.850156,2151,1848,-7341
1.851356,2148,1815,-7355
1.852557,2123,1828,-7337
1.853757,2091,1868,-7234
1.854958,2072,1931,-7161
1.856158,2048,2016,-7030
1.857359,2071,2092,-6939
1.858559,2071,2253,-6751
1.859759,2072,2449,-6696
1.860960,2047,2565,-6488
1.886202,2026,2789,-6258
1.887403,2025,2977,-6111
1.888603,1991,3165,-5841
1.889804,1992,3232,-5455
1.891004,2024,3421,-5043
1.892205,2044,3660,-4858
1.893405,2070,4026,-4429
1.894606,2112,3923,-4058
1.895806,2145,4126,-3859
1.897007,2166,4263,-3390
1.898207,2226,4325,-2960
1.899408,2322,4506,-2524
1.900608,2344,4629,-2265
1.901809,2458,4688,-1770
1.903009,2517,4753,-1314
1.904210,2560,4786,-1077
1.905410,2631,4791,-676
1.906610,2805,4765,-415
1.907811,2679,4789,-224
1.909011,2709,4782,133
1.933361,2800,4798,323
1.934562,2812,4825,411
1.935762,2774,4975,457
1.936963,2837,5096,629
1.938163,3099,5037,864
1.939364,3366,4584,1077
1.940564,3428,3931,1533
1.941765,3578,3508,2266
1.942965,3698,2699,3069
1.944166,3739,1909,3528
1.945366,3842,1213,4519
1.946567,3884,926,5670
1.947767,3925,495,6770
1.948968,3904,330,7142
1.950168,3852,362,7484
1.951369,3862,793,6913
1.952569,3837,1458,6515
1.953770,3727,2089,5919
1.954970,3614,2354,5726
1.956170,3557,2690,5774
1.981065,3461,2832,5956
1.982265,3451,2789,6186
1.983466,3457,2697,6083
1.984666,3492,2584,5942
1.985867,3546,2535,5381
1.987067,3493,2372,4543
1.988268,3461,2058,4054
1.989468,3412,1702,2928
1.990669,3399,1489,1819
1.991869,3351,1052,850
1.993070,3332,616,467
1.994270,3296,140,-268
1.995471,3261,2,-798
1.996671,3241,-302,-1025
1.997872,3193,-538,-1364
1.999072,3199,-604,-1650
2.000273,3184,-651,-1882
2.001473,3166,-636,-1960
2.002673,3148,-591,-2078
2.003874,3135,-481,-2154
1.981232,3121,-349,-2164
1.982432,3067,-231,-2180
1.983633,3037,-179,-2153
1.984833,3015,-86,-2118
1.986034,3007,43,-2112
1.987234,2979,107,-2095
1.988435,2960,296,-2079
1.989635,2893,381,-1947
1.990836,3089,708,-1906
1.992036,3004,835,-2053
1.993237,2964,1088,-2090
1.994437,2984,1288,-2305
1.995638,2945,1403,-2719
1.996838,2889,1581,-3262
1.998039,2894,1745,-3552
1.999239,2846,1823,-4100
2.000440,2807,1836,-4627
2.001640,2793,1831,-5088
2.002841,2789,1788,-5226
2.004041,2751,1832,-5594
2.027475,2715,1942,-5864
2.028676,2660,2125,-5978
2.029876,2611,2249,-6231
2.031077,2569,2324,-6541
2.032277,2527,2452,-6707
2.033478,2530,2591,-7073
2.034678,2500,2632,-7347
2.035879,2439,2631,-7534
2.037079,2408,2602,-7561
2.038280,2297,2482,-7626
2.039480,2221,2397,-7643
2.040680,2199,2167,-7610
2.041881,2204,1979,-7700
2.043081,2201,1938,-7618
2.044282,2169,1832,-7427
2.045482,2182,1856,-7295
2.046683,2151,1828,-6964
2.047883,2137,1879,-6590
2.049084,2162,2038,-6392
2.050284,2110,2152,-5970
2.072387,2038,2295,-5429
2.073588,2007,2381,-4937
2.074788,1982,2489,-4650
2.075988,1976,2566,-4185
2.077189,1999,2687,-3627
2.078389,1979,2770,-3454
2.079590,2016,2902,-2968
2.080790,2026,2952,-2608
2.081991,2144,3100,-2266
2.083191,2159,3224,-2076
2.084392,2266,3531,-1760
2.085592,2347,3468,-1466
2.086793,2416,3766,-1285
2.087993,2548,3964,-1037
2.089194,2638,4096,-762
2.090394,2744,4325,-420
2.091595,2768,4481,-264
2.092795,2831,4812,-23
2.093996,2864,4674,258
2.095196,2904,4771,403
2.119329,2999,4808,823
2.120530,3127,4756,1469
2.121730,3232,4487,2104
2.122931,3295,4032,2683
2.124131,3391,3775,3431
2.125332,3494,3254,3811
2.126532,3529,2903,3598
2.127733,3592,2750,3573
2.128933,3638,2739,2967
2.130134,3646,2733,2373
2.131334,3657,2589,2321
2.132535,3687,2442,2407
2.133735,3698,2240,2607
2.134936,3723,2131,2642
2.136136,3717,2068,2545
2.137337,3774,2017,2442
2.138537,3783,1959,2436
2.139738,3784,1833,2423
2.140938,3789,1738,2333
2.142139,3775,1561,2211
2.145252,3769,1340,2118
2.146452,3717,1128,1914
2.147653,3665,1048,1610
2.148853,3636,882,1452
2.150054,3584,769,1160
2.151254,3521,750,820
2.152454,3478,724,523
2.153655,3453,736,408
2.154855,3419,776,159
2.156056,3366,796,-35
2.157256,3373,880,-104
2.158457,3334,943,-319
2.159657,3343,931,-466
2.160858,3319,928,-615
2.162058,3335,927,-655
2.163259,3321,911,-815
2.164459,3302,931,-933
2.165660,3310,927,-1006
2.166860,3281,910,-1283
2.168061,3265,952,-1580
2.200081,3224,921,-1934
2.201282,3219,913,-2132
2.202482,3166,876,-2627
2.203683,3137,854,-3178
2.204883,3120,815,-3506
2.206084,3043,741,-4189
2.207284,3001,696,-4811
2.208485,2966,599,-5263
2.209685,2934,540,-5396
2.210886,2890,575,-5450
2.212086,2819,742,-5386
2.213287,2785,1029,-5338
2.214487,2718,1372,-5297
2.215687,2673,1511,-5307
2.216888,2617,1643,-5379
2.218088,2594,1649,-5416
2.219289,2552,1629,-5465
2.220489,2553,1549,-5425
2.221690,2549,1520,-5402
2.222890,2583,1541,-5285
2.248712,2607,1581,-5130
2.249913,2629,1714,-5086
2.251113,2645,1899,-4886
2.252313,2646,2017,-4654
2.253514,2673,2244,-4344
2.254714,2673,2425,-4186
2.255915,2692,2638,-3711
2.257115,2694,2774,-3188
2.258316,2754,3086,-2663
2.259516,2769,3412,-2403
2.260717,2822,3550,-1865
2.261917,2890,3868,-1365
2.263118,2922,4085,-1112
2.264318,2987,4267,-724
2.265519,3058,4326,-334
2.266719,3310,4432,16
2.267920,3099,4447,166
2.269120,3169,4420,499
2.270321,3308,4411,718
2.271521,3406,4405,691
2.277208,3834,4186,353
2.278408,3459,3576,2161
2.279609,3159,3483,2016
2.280809,3338,4020,1532
2.282010,3595,4046,1907
2.283210,3630,4013,2653
2.284411,3661,3933,3050
2.285611,3699,3587,3823
2.286812,3729,3654,4108
2.288012,3740,3577,3997
2.289213,3689,3575,3369
2.290413,3630,3493,2662
2.291614,3586,3245,2327
2.292814,3559,2891,2255
2.294015,3531,2729,2146
2.295215,3503,2442,1904
2.296416,3499,2200,1732
2.297616,3478,1997,1434
2.298817,3487,1876,1252
2.300017,3498,1672,1089
2.277352,3490,1453,1002
2.278552,3497,1050,816
2.279753,3453,1076,533
2.280953,3457,896,332
2.282154,3398,778,40
2.283354,3348,722,-250
2.284555,3310,652,-484
2.285755,3292,600,-540
2.286956,3311,612,-639
2.288156,3283,621,-736
2.289356,3280,675,-766
2.290557,3284,693,-769
2.291757,3261,677,-755
2.292958,3266,690,-1009
2.294158,3255,712,-795
2.295359,3237,726,-839
2.296559,3230,759,-906
2.297760,3230,818,-940
2.298960,3222,875,-1071
2.300161,3216,909,-1192
2.328486,3214,999,-1521
2.329687,3196,1095,-1411
2.330887,3204,1156,-1607
2.332088,3199,1253,-1823
2.333288,3209,1379,-1946
2.334489,3192,1494,-2241
2.335689,3157,1549,-2621
2.336890,3153,1678,-2841
2.338090,3118,1736,-3259
2.339291,3091,1747,-3649
2.340491,3061,1755,-3994
2.341692,3042,1786,-4199
2.342892,2988,1831,-4636
2.344093,2966,1870,-5075
2.345293,2929,1985,-5503
2.346494,2875,2067,-5551
2.347694,2796,2097,-5776
2.348895,2718,2118,-5887
2.350095,2680,2052,-5920
2.351295,2624,2002,-5875
2.374792,2592,1929,-5880
2.375992,2315,1888,-5888
2.377193,2555,1869,-5866
2.378393,2547,1896,-5813
2.379594,2537,1988,-5733
2.380794,2521,2131,-5633
2.381995,2504,2183,-5452
2.383195,2484,2342,-5100
2.384396,2495,2539,-4919
2.385596,2500,2815,-4607
2.386797,2506,2972,-4137
2.387997,2478,3389,-3609
2.389198,2441,3876,-3278
2.390398,2377,4390,-2848
2.391599,2609,4576,-2560
2.392799,2592,4555,-2375
2.393999,2586,4601,-2039
2.395200,2564,4426,-1731
2.396400,2618,4170,-1574
2.397601,2666,3937,-1466
2.515086,2817,3777,-1286
2.516286,2908,3584,-1142
2.517487,2936,3394,-1083
2.518687,3009,3265,-911
2.519888,3047,3179,-778
2.521088,3129,3107,-738
2.522289,3173,3059,-701
2.523489,3437,3036,-608
2.524690,3446,2738,-54
2.525890,3346,2617,57
2.527091,3369,2713,125
2.528291,3557,2723,336
2.529492,3590,2614,833
2.530692,3552,2554,989
2.531893,3602,2507,1694
2.533093,3604,2479,2833
2.534294,3584,2510,3462
2.535494,3635,2718,4678
2.536695,3818,2863,5306
2.537895,3915,3223,5149
2.515248,3994,3480,5142
2.516449,3913,3547,4536
2.517649,3798,3499,4026
2.518850,3749,3205,3871
2.520050,3644,2835,3729
2.521250,3589,2611,3715
2.522451,3328,2259,3381
2.523651,3609,2003,3488
2.524852,3586,1896,3221
2.526052,3540,1636,2914
2.527253,3522,1314,2712
2.528453,3517,895,2285
2.529654,3493,798,1807
2.530854,3457,530,1509
2.532055,3406,355,922
2.533255,3362,274,384
2.534456,3325,126,-100
2.535656,3334,6,-263
2.536857,3332,-255,-648
2.538057,3376,-44,-837
2.515425,3577,-106,-931
2.516625,3329,-100,-1081
2.517826,3341,-90,-1123
2.519026,3331,-47,-1118
2.520227,3309,24,-1080
2.521427,3304,56,-1070
2.522627,3297,127,-1004
2.523828,3297,214,-957
2.525028,3268,314,-934
2.526229,3313,371,-923
2.527429,3254,497,-954
2.528630,3252,665,-947
2.529830,3223,756,-997
2.531031,3212,951,-1083
2.532231,3203,1164,-1130
2.533432,3184,1381,-1265
2.534632,3167,1499,-1458
2.535833,3133,1745,-1555
2.537033,3150,1982,-1833
2.538234,3151,2093,-2247
2.567222,3116,2298,-2735
2.568423,3132,2445,-2991
2.569623,3093,2520,-3497
2.570824,3045,2530,-3958
2.572024,3006,2531,-4461
2.573225,2991,2533,-4696
2.574425,2939,2547,-5118
2.575626,2928,2560,-5489
2.576826,2886,2591,-5655
2.578026,2878,2658,-5900
2.579227,2921,2707,-6083
2.580427,2936,2799,-6172
2.581628,2848,2852,-6306
2.582828,2735,2844,-6399
2.584029,2580,2782,-6468
2.585229,2516,2739,-6500
2.586430,2435,3021,-6643
2.587630,2356,2876,-6788
2.588831,2072,2962,-6845
2.590031,2247,3068,-6912
2.615145,2226,3113,-6871
2.616345,2216,3200,-6632
2.617546,2178,3241,-6518
2.618746,2151,3249,-6253
2.619947,2110,3275,-5949
2.621147,2094,3210,-5798
2.622348,2068,3146,-5434
2.623548,2050,3096,-5018
2.624749,2050,3056,-4682
2.625949,2066,3108,-4482
2.627150,2150,3185,-4019
2.628350,2236,3389,-3690
2.629551,2265,3680,-3445
2.630751,2323,3906,-3125
2.631952,2357,4052,-2861
2.633152,2397,4246,-2554
2.634352,2435,4374,-2455
2.635553,2476,4426,-2246
2.636753,2576,4455,-1920
2.637954,2619,4395,-1832
2.615306,2699,4196,-1575
2.616506,2791,4097,-1232
2.617707,2920,3846,-781
2.618907,2961,3488,-645
2.620108,3101,3334,-219
2.621308,3251,3026,321
2.622509,3323,2769,590
2.623709,3472,2569,1033
2.624910,3754,2462,1311
2.626110,3640,1839,2402
2.627311,3512,1538,2565
2.628511,3533,1638,2415
2.629712,3602,1655,2596
2.630912,3616,1757,2663
2.632113,3666,1777,3062
2.633313,3710,1787,3631
2.634514,3758,1684,4189
2.635714,3848,1482,4681
2.636914,3904,1471,4986
2.638115,3954,1522,4828
2.662542,3964,1515,4669
2.663743,3913,1424,4498
2.664943,3923,1347,4751
2.666144,3941,1078,5521
2.667344,4001,679,6034
2.668544,4007,552,6947
2.669745,3988,319,7587
2.670945,3968,319,7722
2.672146,3866,377,7791
2.673346,3809,627,7636
2.674547,3776,992,7183
2.675747,3697,1280,6954
2.676948,3640,1387,6416
2.678148,3621,1559,5805
2.679349,3622,1654,5431
2.680549,3595,1673,4637
2.681750,3521,1635,3870
2.682950,3485,1436,3520
2.684151,3456,1115,2710
2.685351,3416,944,1902
2.692436,3369,656,1158
2.693636,3314,390,811
2.694837,3222,253,128
2.696037,3186,143,-513
2.697238,2878,-60,-811
2.698438,3011,-209,-1370
2.699639,2924,-282,-1816
2.700839,2828,-469,-2272
2.702040,2780,-616,-2519
2.703240,2758,-656,-2887
2.704441,2707,-718,-3286
2.705641,2670,-692,-3467
2.706842,2647,-567,-3780
2.708042,2620,-518,-3980
2.709243,2597,-340,-4306
2.710443,2616,-47,-4151
2.711643,2775,159,-4188
2.712844,2810,523,-4204
2.714044,2845,846,-4212
2.715245,2754,1025,-4327
2.734911,2679,1087,-4545
2.736111,2710,1235,-4646
2.737312,2766,1349,-4965
2.738512,2633,1458,-5261
2.739713,2589,1712,-5529
2.740913,2602,1911,-5766
2.742113,2472,2058,-5835
2.743314,2251,2019,-5817
2.744514,2200,2222,-5908
2.745715,2155,2290,-5777
2.746915,1934,2437,-5916
2.748116,1803,2501,-5591
2.749316,1689,2473,-5555
2.750517,1680,2560,-5453
2.751717,1631,2513,-5238
2.752918,1608,2637,-5336
2.754118,1787,2674,-5034
2.755319,1755,2784,-5153
2.756519,1880,2969,-5189
2.757720,1930,3198,-5177
2.788425,1906,3525,-5366
2.789625,1902,3508,-5207
2.790826,2261,3678,-4893
2.792026,2384,3972,-4852
2.793227,2583,4220,-5056
2.794427,2556,4437,-5229
2.795628,2602,4712,-5363
2.796828,2504,5089,-5439
2.798029,2416,4965,-5546
2.799229,2060,4978,-5606
2.800430,2259,4963,-5419
2.801630,2201,5012,-5441
2.802831,2153,4897,-5473
2.804031,2180,5120,-5555
2.805232,2182,5183,-5493
2.806432,2116,5088,-5670
2.807633,2073,4838,-5445
2.808833,2171,4614,-5351
2.810034,2128,4461,-5130
2.811234,2108,4127,-4919
2.841389,2091,3817,-4780
2.842590,2113,3691,-4605
2.843790,2098,3468,-4512
2.844991,2097,3312,-4493
2.846191,2148,3210,-4413
2.847392,2203,3167,-4373
2.848592,2255,3081,-4344
2.849793,2277,2979,-4325
2.850993,2267,2922,-4308
2.852194,2256,2798,-4298
2.853394,2253,2637,-4300
2.854594,2208,2462,-4307
2.855795,2165,2372,-4486
2.856995,2049,2117,-4437
2.858196,1999,1824,-4375
2.859396,1886,1355,-4415
2.860597,1788,1265,-4265
2.861797,1775,915,-4331
2.862998,1721,639,-4451
2.864198,1666,543,-4601
2.891996,1668,369,-4659
2.893196,1661,254,-4765
2.894397,1584,144,-4791
2.895597,1487,-43,-4923
2.896798,1485,107,-4763
2.897998,1244,197,-4611
2.899199,1264,324,-4562
2.900399,1370,561,-4577
2.901600,1310,424,-4320
2.902800,1201,441,-3537
2.904001,1225,422,-2883
2.905201,1253,439,-2513
2.906402,1235,375,-1679
2.907602,1379,494,-721
2.908803,1693,644,237
2.910003,1691,994,490
2.911204,1810,1217,1447
2.912404,2089,1418,2405
2.913605,2198,1753,2733
2.914805,2445,1929,3540
2.892102,2908,2114,3120
2.893303,3813,2061,2817
2.894503,3401,735,7185
2.895704,3568,892,7793
2.896904,4230,1695,7830
2.898105,4449,2126,7853
2.899305,4731,2489,8964
2.900505,4833,2455,9426
2.901706,5091,2828,9816
2.902906,4984,3122,10842
2.904107,4984,3312,11794
2.905307,5164,4021,12285
2.906508,5180,4877,12319
2.907708,5140,5722,12523
2.908909,5112,6178,12550
2.910109,4967,7044,12583
2.911310,4951,7546,12139
2.912510,4875,7570,11604
2.913711,4559,7119,10756
2.914911,4486,6415,10046
2.921010,4158,5949,8432
2.922211,4016,5086,7147
2.923411,3930,4018,6505
2.924612,3740,2999,5330
2.925812,3398,2382,4565
2.927012,3148,1234,3661
2.928213,3071,272,3433
2.929413,2970,-129,2862
2.930614,2999,-818,2397
2.931814,3027,-1275,2133
2.933015,3020,-1454,1583
2.934215,2988,-1482,1173
2.935416,2949,-1481,709
2.936616,2907,-1332,407
2.937817,2851,-1208,36
2.939017,2799,-1012,-200
2.940218,2820,-805,-308
2.941418,2776,-490,-417
2.942619,2728,-319,-452
2.943819,2705,-149,-381
2.948214,2683,177,-211
2.949415,2509,355,-166
2.950615,2416,503,72
2.951816,2377,641,173
2.953016,2419,655,316
2.954217,2403,658,384
2.955417,2431,618,470
2.956618,2413,574,519
2.957818,2373,574,545
2.959019,2356,647,472
2.960219,2300,643,461
2.961419,2350,961,359
2.962620,2238,864,233
2.963820,2193,988,120
2.965021,2060,1025,31
2.966221,1970,1091,-164
2.967422,1905,1144,-476
2.968622,1906,1190,-510
2.969823,1871,1326,-605
2.971023,1468,1454,-1692
3.003240,1679,1791,-1682
3.004441,1723,1600,-918
3.005641,1817,1713,-1433
3.006842,1887,1814,-1416
3.008042,1841,2022,-1528
3.009243,1834,2141,-1826
3.010443,2376,2615,-2186
3.011644,2094,2807,-2686
3.012844,1946,2908,-2623
3.014045,1798,2957,-2972
3.015245,1559,3005,-3351
3.016446,1557,3085,-3558
3.017646,1411,3116,-3833
3.018847,1355,3100,-4190
3.020047,1404,3170,-4389
3.021248,1394,3216,-4639
3.022448,1479,3304,-4939
3.023648,1451,3384,-5282
3.024849,1456,3475,-5225
3.026049,1410,3487,-5600
3.058418,1364,3501,-5851
3.059619,1375,3527,-6003
3.060819,1341,3522,-6281
3.062020,1360,3535,-6548
3.063220,1366,3590,-6723
3.064421,1386,3695,-6977
3.065621,1391,3733,-7239
3.066822,1412,3847,-7443
3.068022,1401,3956,-7572
3.069223,1397,4072,-7743
3.070423,1378,4151,-7947
3.071624,1383,4284,-8386
3.072824,1339,4405,-8319
3.074024,1299,4421,-8470
3.075225,1243,4505,-8631
3.076425,1242,4527,-8640
3.077626,1198,4539,-8724
3.078826,1183,4542,-8747
3.080027,1229,4559,-8849
3.081227,1244,4427,-8777
3.105817,1284,4307,-8584
3.107017,1270,4042,-8206
3.108218,1257,3754,-8105
3.109418,1274,3674,-7835
3.110619,1231,3481,-7471
3.111819,1214,3364,-7335
3.113019,1219,3273,-6982
3.114220,1234,3261,-6779
3.115420,1447,3342,-6738
3.116621,1549,3436,-6670
3.117821,1570,3436,-6439
3.119022,1520,3414,-6384
3.120222,1518,3439,-6410
3.121423,1510,3441,-6452
3.122623,1489,3446,-6530
3.123824,1463,3429,-6608
3.125024,1436,3371,-6641
3.126225,1377,3080,-6671
3.127425,1259,3278,-6698
3.128626,1176,3204,-6708
3.135787,951,2969,-6670
3.136987,747,2832,-6537
3.138188,643,2562,-6363
3.139388,623,2366,-6278
3.140589,668,2307,-6210
3.141789,668,2255,-6081
3.142990,650,2293,-6020
3.144190,654,2375,-5833
3.145391,609,2385,-5549
3.146591,682,2554,-5320
3.147792,654,2787,-5064
3.148992,685,2866,-4814
3.150193,860,3138,-4295
3.151393,804,3319,-4210
3.152594,865,3531,-3841
3.153794,875,3585,-3444
3.154994,957,3703,-2922
3.156195,961,3765,-2828
3.157395,1032,3824,-2461
3.158596,1037,3913,-2338
3.182809,996,3883,-2178
3.184009,905,3736,-1973
3.185210,987,3609,-1723
3.186410,1042,3422,-1351
3.187611,1070,3263,-1428
3.188811,1214,3180,-1133
3.190012,1177,2938,-770
3.191212,1220,2767,-671
3.192413,1167,2648,-572
3.193613,1154,2405,-328
3.194814,1266,2274,-363
3.196014,1128,2104,-181
3.197215,1272,1935,9
3.198415,1283,1797,-143
3.199616,1275,1601,27
3.200816,1367,1489,134
3.202017,1470,1340,45
3.203217,1420,1138,212
3.204417,1275,860,290
3.205618,1427,804,587
3.182972,1645,789,489
3.184173,1635,573,536
3.185373,1600,599,960
3.186574,1708,541,1267
3.187774,2012,644,1395
3.188975,1878,833,1586
3.190175,1830,748,2255
3.191376,2373,876,2304
3.192576,2982,1061,2168
3.193777,2963,741,3601
3.194977,3158,814,4022
3.196178,3032,975,4672
3.197378,3041,806,4930
3.198579,3373,724,5548
3.199779,3703,674,5870
3.200980,3708,356,5959
3.202180,3924,264,6304
3.203380,3996,13,6526
3.204581,4082,-145,6591
3.205781,4269,-96,6832
3.231170,4148,-66,6964
3.232370,4411,286,7232
3.233571,4590,867,7029
3.234771,4201,1000,7118
3.235972,4468,2018,7193
3.237172,4724,2554,7306
3.238373,4608,2632,8304
3.239573,4652,2839,8785
3.240774,4645,3181,9218
3.241974,4701,3464,9247
3.243175,4588,3724,9423
3.244375,4385,3944,9479
3.245576,4311,4114,9513
3.246776,4182,4342,9279
3.247977,3950,4323,9139
3.249177,3663,4408,8584
3.250378,3740,4246,8497
3.251578,3629,4188,8146
3.252779,3420,3868,7923
3.253979,3303,3387,7911
3.277398,3074,2876,7505
3.278599,2826,2553,7273
3.279799,2747,1979,6959
3.281000,2719,1530,6987
3.282200,2662,1293,6733
3.283400,2598,910,6416
3.284601,2603,658,6284
3.285801,2801,644,6029
3.287002,2893,662,5511
3.288202,2578,658,5262
3.289403,2660,674,4893
3.290603,2365,816,4341
3.291804,2218,923,4013
3.293004,2176,1188,3754
3.294205,2031,1504,3287
3.295405,1890,1387,2689
3.296606,1724,1593,2457
3.297806,1630,1780,2261
3.299007,1446,1715,1971
3.300207,1395,1770,1535
3.324070,1334,1685,1288
3.325270,1254,1733,872
3.326471,1035,1655,453
3.327671,939,1506,338
3.328872,1012,1563,17
3.330072,1122,1482,-637
3.331273,1085,1393,-1002
3.332473,1098,1569,-929
3.333674,660,1215,-1470
3.334874,696,1270,-1594
3.336075,732,1204,-1894
3.337275,444,1072,-2200
3.338476,267,1018,-2404
3.339676,140,1025,-2753
3.340877,170,1105,-2633
3.342077,7,1099,-2912
3.343278,123,1164,-3016
3.344478,147,1173,-3066
3.345678,100,1186,-3390
3.346879,-134,1055,-3344
3.370292,-150,1238,-3468
3.371492,-185,1299,-3513
3.372693,-615,1352,-3273
3.373893,-309,1700,-3441
3.375094,-417,1764,-3481
3.376294,-465,1836,-3064
3.377495,-443,2005,-2718
3.378695,-419,2289,-2391
3.379896,-339,2624,-2350
3.381096,-466,2591,-1963
3.382297,-346,2906,-1767
3.383497,-296,3113,-1772
3.384698,-439,3103,-1708
3.385898,-563,3208,-1872
3.387099,-639,3228,-1856
3.388299,-524,3377,-1928
3.389500,-799,3366,-1916
3.390700,-702,3570,-2161
3.391901,-786,3401,-2338
3.393101,-1044,3779,-2173
3.426806,-855,3724,-2389
3.428006,-803,4066,-3058
3.429207,-794,4265,-3211
3.430407,-646,4458,-3550
3.431608,-627,4825,-3874
3.432808,-681,4968,-4127
3.434009,-761,5272,-4706
3.435209,-793,5262,-5082
3.436410,-795,5471,-5196
3.437610,-778,5635,-5497
3.438811,-806,5707,-5861
3.440011,-796,5829,-6197
3.441212,-793,5904,-6371
3.442412,-794,5956,-6694
3.443613,-782,5993,-6847
3.444813,-770,6097,-6917
3.446014,-709,6129,-7277
3.447214,-585,6321,-7429
3.448415,-559,6388,-7189
3.449615,-557,6493,-7098
3.476493,-476,6592,-6816
3.477694,-342,6729,-6454
3.478894,-307,6941,-6260
3.480094,-221,7101,-5823
3.481295,-123,7180,-5440
3.482495,-111,7251,-5034
3.483696,-83,7213,-4981
3.484896,-117,7140,-4754
3.486097,-93,6878,-4668
3.487297,-104,6523,-4684
3.488498,-62,6078,-4723
3.489698,-17,5859,-4827
3.490899,56,5420,-5082
3.492099,41,5002,-4864
3.493300,-16,4808,-4543
3.494500,-22,4289,-5415
3.495701,26,4068,-5583
3.496901,31,3682,-5310
3.498102,48,3538,-5159
3.499302,59,3486,-5074
3.476624,51,3352,-4823
3.477824,72,3377,-5019
3.479025,118,3476,-4797
3.480225,123,3505,-4618
3.481426,175,3550,-4360
3.482626,171,3703,-4428
3.483827,81,3862,-4675
3.485027,-47,4004,-4520
3.486228,-96,4112,-4592
3.487428,-207,4443,-4901
3.488629,-225,4673,-5151
3.489829,-269,4987,-5425
3.491030,-230,5327,-5606
3.492230,-9,5817,-5688
3.493430,-224,6250,-5821
3.494631,-177,6589,-6012
3.495831,-92,7073,-6049
3.497032,-25,7639,-6173
3.498232,-28,8146,-6236
3.499433,-32,8329,-6326
3.526418,236,8757,-6344
3.527618,31,9173,-6386
3.528819,12,9308,-6413
3.530019,30,9455,-6466
3.531220,-21,9363,-6406
3.532420,-521,8842,-6324
3.533621,-596,8817,-6401
3.534821,-583,8363,-6109
3.536022,-583,7822,-5684
3.537222,-505,7618,-5549
3.538423,-438,7158,-5332
3.539623,-422,6686,-5196
3.540823,-322,6455,-4950
3.542024,-99,6148,-4790
3.543224,-41,5859,-4693
3.544425,18,5662,-4553
3.545625,-26,5572,-4521
3.546826,-154,5437,-4554
3.548026,-202,5298,-4554
3.549227,-357,5170,-4470
3.526526,-520,4949,-4304
3.527727,-533,4660,-4623
3.528927,-780,4355,-4659
3.530128,-726,4253,-4278
3.531328,-678,3922,-4147
3.532529,-753,3637,-4248
3.533729,-814,3517,-4223
3.534930,-808,3270,-3989
3.536130,-756,3082,-3910
3.537331,-567,2922,-3898
3.538531,-426,2856,-3899
3.539732,-399,2702,-3894
3.540932,-364,2596,-3922
3.542132,-322,2554,-4027
3.543333,-452,2327,-4250
3.544533,-494,2212,-4347
3.545734,-498,2202,-4434
3.546934,-541,2178,-4405
3.548135,-562,2164,-4350
3.549335,-531,2264,-4296
3.596294,-701,2184,-4301
3.597495,-726,2264,-4020
3.598695,-661,2461,-3888
3.599896,-610,2793,-3587
3.601096,-578,2695,-3279
3.602297,-457,2958,-3120
3.603497,-378,3192,-2731
3.604698,-358,3269,-2443
3.605898,-357,3402,-2175
3.607098,-324,3524,-2093
3.608299,-319,3560,-2020
3.609499,-320,3608,-1880
3.610700,-285,3666,-1774
3.611900,-283,3676,-1619
3.613101,-374,3677,-1406
3.614301,-404,3633,-1233
3.615502,-385,3636,-1171
3.616702,-382,3357,-946
3.617903,-412,3544,-731
3.619103,-439,3418,-565
3.643244,-411,3296,-528
3.644444,-421,3221,-489
3.645645,-356,3106,-497
3.646845,-332,2975,-408
3.648046,-259,2853,-237
3.649246,-172,2799,-305
3.650447,-329,2633,-39
3.651647,-139,2373,96
3.652848,-28,2393,93
3.654048,26,2224,211
3.655249,-50,1934,276
3.656449,10,1825,351
3.657650,16,1589,251
3.658850,-78,1358,309
3.660051,-20,1120,480
3.661251,-21,926,354
3.662451,53,713,307
3.663652,168,518,332
3.664852,507,669,171
3.666053,536,435,176
3.690303,588,398,201
3.691504,476,369,138
3.692704,377,366,256
3.693905,332,303,338
3.695105,423,379,556
3.696306,230,310,691
3.697506,431,376,1099
3.698707,395,427,1081
3.699907,601,712,1453
3.701108,683,478,1568
3.702308,695,657,1871
3.703509,727,614,1932
3.704709,1008,760,2250
3.705910,909,1001,2288
3.707110,923,1108,2491
3.708311,1054,1168,2611
3.709511,1150,1313,2716
3.710712,1614,1857,2965
3.711912,1372,1882,2918
3.713112,1385,1807,3244
3.735628,1678,2215,3002
3.736829,1427,2225,3041
3.738029,1676,2432,3630
3.739230,2043,2698,3322
3.740430,1821,2728,3623
3.741631,1908,2911,4014
3.742831,2294,3081,3878
3.744032,2365,3300,4111
3.745232,2514,3465,4077
3.746432,2514,3659,3893
3.747633,2332,3683,4300
3.748833,2537,3760,4191
3.750034,2614,3966,3745
3.751234,2372,3865,4391
3.752435,2713,3827,4197
3.753635,2970,4069,3965
3.754836,2993,3844,3676
3.756036,2789,3860,3824
3.757237,2652,3603,4046
3.758437,3009,3846,3634
3.780982,2833,3500,3427
3.782182,3280,3510,3151
3.783382,3110,3409,3083
3.784583,3112,3310,3105
3.785783,2903,3120,2907
3.786984,2847,2885,2976
3.788184,2718,2604,2884
3.789385,2894,2524,2904
3.790585,3197,2334,2652
3.791786,3143,2279,2947
3.792986,2853,2080,2900
3.794187,2798,1875,3220
3.795387,2825,1683,3053
3.796588,3040,1649,3116
3.797788,3091,1582,2993
3.798989,2853,1480,3325
3.800189,2909,1331,3108
3.801390,2855,1273,3237
3.802590,2741,1149,3316
3.803791,2869,1085,3452
3.781251,3131,1043,3403
3.782452,3281,1087,3301
3.783652,3148,995,3539
3.784853,3058,940,3340
3.786053,2949,909,3326
3.787254,2917,830,3337
3.788454,3040,853,3296
3.789655,3037,852,3204
3.790855,2970,734,3248
3.792056,2965,736,3224
3.793256,2839,661,3280
3.794457,2915,689,3243
3.795657,3132,750,3149
3.796857,3111,754,3035
3.798058,3047,796,3053
3.799258,2837,822,3049
3.800459,2781,851,3003
3.801659,2727,918,2968
3.802860,2702,912,2960
3.804060,2821,945,2992
3.828424,2917,1045,2904
3.829625,3163,1206,2741
3.830825,3088,1311,2842
3.832026,2848,1150,2978
3.833226,2737,1082,3265
3.834427,3003,1114,3091
3.835627,3021,1217,3089
3.836828,2997,1227,3401
3.838028,3060,1298,3420
3.839229,3095,1330,3596
3.840429,3076,1408,3772
3.841630,3042,1466,3971
3.842830,3084,1501,4289
3.844031,3164,1711,4360
3.845231,3175,1811,4630
3.846432,3115,1862,4932
3.847632,3060,1949,5315
3.848833,3028,2120,5536
3.850033,2699,2050,5855
3.851234,2375,2030,6189
3.873080,2486,2451,6217
3.874281,2527,2817,6289
3.875481,2438,2953,6354
3.876682,2330,3170,6464
3.877882,2276,3323,6515
3.879083,2191,3414,6598
3.880283,2087,3391,6574
3.881484,2042,3323,6243
3.882684,1933,3188,6286
3.883885,1838,3144,5995
3.885085,1706,3019,5594
3.886286,1641,2900,5417
3.887486,1536,2850,4931
3.888687,1414,2785,4471
3.889887,1365,2747,4230
3.891088,1268,2720,3760
3.892288,1190,2717,3269
3.893489,1234,2805,2801
3.894689,1294,2867,2563
3.895890,1456,2923,2045
3.919176,1522,2964,1443
3.920376,1470,2897,1174
3.921577,1308,2858,754
3.922777,1175,2790,404
3.923978,1117,2716,136
3.925178,1139,2663,49
3.926379,1116,2628,-153
3.927579,1068,2555,-272
3.928780,1064,2487,-307
3.929980,1029,2369,-380
3.931181,1081,2315,-400
3.932381,1216,2199,-1
3.933582,1607,2663,-1396
3.934782,1431,2432,153
3.935983,1347,2489,591
3.937183,1328,2814,578
3.938384,1326,3025,1099
3.939584,1319,2969,1436
3.940785,1292,2835,1552
3.941985,1375,2778,1714
3.966276,1208,2762,1668
3.967477,1147,2860,1645
3.968677,1047,3091,1405
3.969877,869,3388,1371
3.971078,772,3624,1386
3.972278,686,4010,1440
3.973479,528,4357,1416
3.974679,376,4447,1259
3.975880,336,4874,983
3.977080,247,5149,727
3.978281,12,5307,368
3.979481,-14,5388,227
3.980682,-13,5973,-46
3.981882,-100,6561,-291
3.983083,-331,6740,-523
3.984283,-411,7093,-553
3.985484,-420,7650,-644
3.986684,-549,8049,-821
3.987885,-674,8135,-1034
3.989085,-727,8456,-1020
4.012698,-698,8636,-959
4.013899,-624,8728,-958
4.015099,-445,8905,-588
4.016300,-363,9041,-376
4.017500,-377,9074,347
4.018701,-431,9083,845
4.019901,-720,8944,1299
4.021101,-495,8692,1460
4.022302,-603,8553,1581
4.023502,-610,8288,1215
4.024703,-677,7860,1099
4.025903,-720,7168,867
4.027104,-748,7140,481
4.028304,-882,6561,471
4.029505,-902,6102,106
4.030705,-1038,5887,-120
4.031906,-1111,5355,-283
4.033106,-1037,4955,-480
4.034307,-926,4502,-834
4.035507,-878,4333,-1202
4.061866,-885,3966,-1361
4.063067,-884,3507,-1699
4.064267,-782,3286,-2078
4.065468,-675,2903,-2410
4.066668,-623,2526,-2538
4.067869,-506,2083,-2583
4.069069,-461,2043,-2608
4.070270,-402,1815,-2633
4.071470,-363,1651,-2719
4.072671,-273,1616,-2720
4.073871,-91,1565,-2843
4.075072,-94,1624,-2923
4.076272,-112,1732,-3109
4.077473,-48,1905,-1458
4.078673,16,2384,-1654
4.079874,324,3507,-4474
4.081074,463,3476,-6367
4.082274,568,3125,-7142
4.083475,500,2259,-7145
4.084675,306,1846,-6621
4.061997,189,1423,-5761
4.063197,191,1539,-5268
4.064398,184,2025,-4201
4.065598,171,2382,-3303
4.066799,221,3202,-2320
4.067999,289,3698,-2229
4.069200,220,3670,-855
4.070400,358,3925,-249
4.071601,459,4071,-122
4.072801,504,3994,-72
4.074002,373,3923,-96
4.075202,50,3580,-165
4.076403,98,3069,-455
4.077603,-13,2855,-1154
4.078803,55,2641,-1876
4.080004,261,2894,-1686
4.081204,296,2178,-389
4.082405,340,1879,449
4.083605,286,1826,816
4.084806,523,1899,1159
4.108767,558,2296,1361
4.109968,675,2416,1629
4.111168,604,2537,1759
4.112369,583,2883,1530
4.113569,563,3001,870
4.114770,600,3385,449
4.115970,498,3685,-318
4.117171,461,3757,-1018
4.118371,370,3863,-1676
4.119572,361,3820,-1838
4.120772,320,3798,-2318
4.121973,339,3790,-2630
4.123173,343,3742,-2766
4.124374,362,3628,-2936
4.125574,255,3520,-3068
4.126775,249,3345,-3163
4.127975,185,3290,-3192
4.129176,162,3531,-3132
4.130376,65,3291,-3253
4.131577,281,3111,-3717
4.152033,268,2591,-3622
4.153234,-23,2404,-3278
4.154434,-148,2252,-3553
4.155635,-184,2302,-3778
4.156835,-218,2265,-3814
4.158036,-391,2401,-4099
4.159236,-499,2464,-4382
4.160437,-655,2081,-4617
4.161637,-723,1945,-4935
4.162838,-790,1589,-5828
4.164038,-792,1613,-5872
4.165239,-765,1714,-6250
4.166439,-744,1910,-6555
4.167640,-742,2074,-6514
4.168840,-811,2227,-6749
4.170040,-899,2270,-6873
4.171241,-905,2621,-6876
4.172441,-940,2769,-6989
4.173642,-972,2859,-7222
4.174842,-1101,3093,-7313
4.198324,-1074,3455,-7466
4.199524,-1168,3625,-7544
4.200725,-1166,3787,-7686
4.201925,-1195,3947,-7621
4.203126,-1263,4016,-7579
4.204326,-1225,3902,-7431
4.205527,-1249,3971,-7258
4.206727,-1303,3987,-7240
4.207928,-1178,4060,-7106
4.209128,-1154,4129,-6891
4.210329,-1094,4158,-6812
4.211529,-1072,4152,-6635
4.212730,-1056,4134,-6435
4.213930,-1101,4042,-6248
4.215131,-1103,3898,-6201
4.216331,-982,3642,-6127
4.217532,-912,3791,-5828
4.218732,-922,3603,-5757
4.219933,-925,3568,-5720
4.221133,-786,3532,-5549
4.198460,-582,3513,-5506
4.199660,-423,3612,-5426
4.200861,-214,3660,-5360
4.202061,-206,3628,-5318
4.203262,-114,3693,-5417
4.204462,88,2935,-4611
4.205663,-265,2817,-3702
4.206863,-93,3401,-3988
4.208064,-52,3699,-4033
4.209264,-76,4070,-3932
4.210465,-88,4105,-3885
4.211665,-63,4269,-3902
4.212865,-100,4282,-3758
4.214066,-109,4287,-3655
4.215266,-115,4295,-3425
4.216467,-124,4194,-3497
4.217667,-119,4143,-3395
4.218868,-66,4074,-3410
4.220068,-62,3872,-3290
4.221269,-38,3687,-3232
4.244583,-26,3594,-3215
4.245784,17,3392,-3532
4.246984,1,3143,-3353
4.248185,32,3079,-3434
4.249385,39,2934,-3562
4.250586,48,2803,-3622
4.251786,17,2801,-3673
4.252987,-7,2878,-3894
4.254187,-162,3024,-4084
4.255388,-88,2852,-4003
4.256588,-168,2816,-4285
4.257789,-139,2811,-4391
4.258989,-89,2821,-4377
4.260190,-135,2875,-4539
4.261390,-147,2935,-4752
4.262590,-157,3064,-5090
4.263791,-173,3173,-4951
4.264991,-205,3204,-4953
4.266192,-300,3220,-4878
4.267392,-350,3316,-4820
4.355784,-439,3371,-4811
4.356985,-594,3585,-4742
4.358185,-673,3911,-4719
4.359386,-703,4298,-4611
4.360586,-649,4528,-4397
4.361787,-611,4897,-4291
4.362987,-557,5306,-4226
4.364188,-404,5809,-4179
4.365388,-377,5874,-4295
4.366589,-433,5963,-4335
4.367789,-495,6115,-4403
4.368990,-529,6101,-4641
4.370190,-395,6285,-4667
4.371391,-377,6447,-4625
4.372591,-403,6553,-4598
4.373792,-434,6703,-4523
4.374992,-443,6889,-4457
4.376193,-481,6992,-4268
4.377393,-562,6984,-4124
4.378593,-566,6939,-3869
4.355912,-498,6941,-3763
4.357113,-507,6679,-3607
4.358313,-599,6801,-3732
4.359514,-666,6627,-3758
4.360714,-730,6406,-3802
4.361915,-646,6277,-3898
4.363115,-733,6085,-4243
4.364316,-772,5932,-4221
4.365516,-624,5932,-4050
4.366716,-776,5744,-4142
4.367917,-853,5507,-4115
4.369117,-1040,5234,-3904
4.370318,-1050,5080,-3654
4.371518,-1050,4846,-3582
4.372719,-1026,4622,-3482
4.373919,-1043,4562,-3286
4.375120,-1115,4370,-3150
4.376320,-1099,4186,-3063
4.377521,-1044,4053,-2951
4.378721,-1037,3970,-2831
4.355984,-1012,3818,-2769
4.357185,-973,3693,-2643
4.358385,-869,3645,-2570
4.359586,-863,3625,-2556
4.360786,-842,3543,-2581
4.361987,-976,3514,-2435
4.363187,-891,3421,-2297
4.364388,-865,3358,-2229
4.365588,-783,3286,-2107
4.366789,-760,3243,-2000
4.367989,-741,3134,-1994
4.369189,-805,3019,-2004
4.370390,-894,2648,-1937
4.371590,-808,2759,-1980
4.372791,-796,2687,-1973
4.373991,-787,2580,-1943
4.375192,-737,2571,-1893
4.376392,-724,2474,-1844
4.377593,-717,2452,-1835
4.378793,-736,2406,-1747
4.409084,-633,2292,-1613
4.410284,-650,2259,-1552
4.411485,-676,2264,-1497
4.412685,-668,2282,-1372
4.413886,-668,2290,-1319
4.415086,-698,2275,-1195
4.416287,-736,2259,-1064
4.417487,-738,2197,-923
4.418688,-712,2150,-778
4.419888,-708,2107,-658
4.421089,-717,2008,-477
4.422289,-694,1883,-366
4.423490,-672,1548,-205
4.424690,-697,1689,-5
4.425890,-707,1531,111
4.427091,-628,1371,326
4.428291,-462,1332,642
4.429492,-376,1267,1006
4.430692,-371,1210,866
4.431893,-363,1148,1077
4.455324,-387,1021,1187
4.456525,-322,860,1086
4.457725,-261,743,1190
4.458926,-127,632,1027
4.460126,-88,540,989
4.461327,-100,522,902
4.462527,-66,516,838
4.463728,-13,514,789
4.464928,27,561,753
4.466129,48,671,789
4.467329,29,660,923
4.468529,161,761,951
4.469730,226,952,955
4.470930,308,1025,1194
4.472131,353,1235,1202
4.473331,264,1313,1257
4.474532,235,1328,1567
4.475732,390,1360,1748
4.476933,551,1372,2038
4.478133,568,1417,1700
4.502871,630,1440,2045
4.504072,722,1407,2218
4.505272,727,1342,2073
4.506473,873,1578,2386
4.507673,895,1513,2313
4.508874,968,1609,2327
4.510074,1096,1670,2527
4.511275,1021,1669,2800
4.512475,1244,1694,2908
4.513676,1243,1759,2828
4.514876,1105,2017,3202
4.516077,1431,1676,3328
4.517277,1228,1807,2983
4.518478,1164,1731,3394
4.519678,1537,1877,3474
4.520879,1553,2160,3055
4.522079,1234,2146,3275
4.523279,2068,2971,3484
4.524480,1709,2914,2768
4.525680,1647,3282,2944
4.531739,1642,3724,2809
4.532939,1796,3781,2731
4.534140,2118,4431,2162
4.535340,1901,4897,2067
4.536541,1569,5071,2370
4.537741,2424,5526,2266
4.538942,2360,5936,1999
4.540142,2029,6052,2375
4.541343,2238,6192,2671
4.542543,2448,6458,2588
4.543744,2295,6577,2671
4.544944,1896,6538,3082
4.546145,2111,6441,3391
4.547345,2166,6326,3355
4.548546,2203,6213,3523
4.549746,2176,6021,3713
4.550947,2273,5799,4055
4.552147,2394,5630,3958
4.553348,2319,5480,3851
4.554548,2164,5313,3800
4.578740,1990,5216,4420
4.579940,2092,4769,4026
4.581141,2075,4558,4142
4.582341,2134,4261,4118
4.583542,2323,4142,4201
4.584742,2209,3965,4036
4.585943,2094,3701,4194
4.587143,2139,3503,4157
4.588344,2305,3496,3951
4.589544,2313,3465,3665
4.590745,2285,3508,3489
4.591945,2219,3732,3227
4.593145,2204,4145,2841
4.594346,2227,4407,2503
4.595546,2197,4953,2364
4.596747,2167,5452,2021
4.597947,2175,5739,1654
4.599148,2166,6244,1365
4.600348,2141,6699,909
4.601549,2182,6907,229
4.626341,2191,7368,-479
4.627542,2116,7744,-861
4.628742,1972,7956,-1556
4.629943,1733,8208,-2145
4.631143,1641,8348,-2429
4.632344,1418,8393,-2836
4.633544,1290,8397,-3032
4.634745,1016,8252,-3052
4.635945,897,7924,-2863
4.637146,753,7392,-2339
4.638346,733,6967,-1636
4.639547,702,6098,-1299
4.640747,728,5217,-559
4.641948,722,4841,118
4.643148,836,4122,698
4.644348,904,3578,908
4.645549,831,3274,1471
4.646749,811,2757,1954
4.647950,819,2414,2105
4.649150,918,2152,2426
4.672739,926,2050,2727
4.673940,907,1824,2895
4.675140,936,1666,3113
4.676341,990,1494,3380
4.677541,968,1337,3496
4.678742,1024,1148,3635
4.679942,978,993,3682
4.681143,968,866,3941
4.682343,1039,762,3944
4.683544,1018,726,3943
4.684744,1071,737,4039
4.685944,1160,805,4050
4.687145,1172,1063,4105
4.688345,1339,1449,3993
4.689546,1423,1666,3820
4.690746,1369,1905,3835
4.691947,1392,2088,3748
4.693147,1527,2173,3707
4.694348,1455,2303,3450
4.695548,1532,2260,3411
4.672862,1361,1930,3262
4.674062,1436,1947,3164
4.675263,1494,1689,3169
4.676463,1420,1345,3147
4.677664,1467,1249,3313
4.678864,1599,1096,3358
4.680065,1594,671,3412
4.681265,1536,142,3610
4.682466,1441,-78,3713
4.683666,1373,-484,3744
4.684867,1270,-866,3783
4.686067,1244,-1067,3914
4.687268,1279,-1387,4068
4.688468,1282,-1689,4193
4.689669,1271,-1832,4520
4.690869,1256,-2032,4823
4.692069,1288,-2201,4978
4.693270,1375,-2341,5294
4.694470,1457,-2376,5522
4.695671,1547,-2437,5772
4.723882,1573,-2465,5879
4.725083,1648,-2451,6037
4.726283,1736,-2389,6143
4.727484,1763,-2279,6186
4.728684,1818,-2161,6294
4.729885,1875,-2100,6322
4.731085,1954,-1925,6305
4.732286,2037,-1687,6273
4.733486,2049,-1551,6176
4.734687,2101,-1305,6088
4.735887,2138,-1047,6040
4.737087,2190,-864,5862
4.738288,2260,-781,5702
4.739488,2377,-567,5548
4.740689,2447,-314,5251
4.741889,2485,-170,4970
4.743090,2426,91,4798
4.744290,2448,302,4809
4.745491,2505,501,4732
4.746691,2499,550,4659
4.769830,2470,611,4665
4.771030,2510,642,4722
4.772231,2596,664,4755
4.773431,2710,719,4747
4.774632,2707,792,4753
4.775832,2776,834,4805
4.777033,2811,885,4864
4.778233,2573,963,4891
4.779434,2781,957,4995
4.780634,2806,953,5114
4.781835,2740,910,5213
4.783035,2759,805,5337
4.784236,2745,530,5369
4.785436,2694,679,5539
4.786637,2702,596,5617
4.787837,2685,527,5633
4.789038,2720,518,5722
4.790238,2665,556,5667
4.791439,2648,649,5743
4.792639,2592,703,5725
4.816285,2544,814,5798
4.817485,2311,931,5809
4.818686,2563,1023,5786
4.819886,2507,1055,5810
4.821087,2449,1077,5840
4.822287,2424,1035,5906
4.823488,2387,992,6020
4.824688,2337,889,6203
4.825889,2291,774,6297
4.827089,2245,642,6499
4.828290,2167,560,6745
4.829490,2101,411,7064
4.830691,2054,276,7207
4.831891,2022,211,7615
4.833092,1984,122,8016
4.834292,1957,33,8211
4.835492,1907,2,8570
4.836693,1820,-27,8760
4.837893,1643,-104,8730
4.839094,1551,-346,8686
4.859179,1473,-361,8513
4.860380,1724,-349,8141
4.861580,1680,-717,7908
4.862781,1416,-893,7197
4.863981,1165,-989,6735
4.865182,1107,-1237,6623
4.866382,1135,-1201,6555
4.867583,1143,-1149,6489
4.868783,1103,-945,6511
4.869984,1133,-650,6471
4.871184,1245,-264,6227
4.872385,1255,-74,5956
4.873585,1187,233,5713
4.874786,1151,409,5664
4.875986,1077,406,5140
4.877186,1050,425,4613
4.878387,971,513,4389
4.879587,929,552,4199
4.880788,861,637,3781
4.881988,864,804,3395
4.903212,842,993,3299
4.904412,737,1070,3033
4.905613,710,1155,2911
4.906813,787,1462,2854
4.908013,779,1678,2898
4.909214,914,1792,2959
4.910414,987,2133,2931
4.911615,887,2424,2908
4.912815,836,2554,3073
4.914016,964,2919,3065
4.915216,1053,3214,3084
4.916417,1005,3334,2997
4.917617,809,3447,3147
4.918818,1016,3571,3284
4.920018,974,3740,3295
4.921219,966,3930,3171
4.922419,764,3799,3445
4.923620,866,3732,3404
4.924820,637,4027,2991
4.926021,545,4062,3209
4.949343,516,4218,3360
4.950544,732,4469,3125
4.951744,716,4591,2918
4.952945,789,4701,3021
4.954145,723,4994,2943
4.955346,701,5137,2947
4.956546,467,5429,3116
4.957747,440,5619,3195
4.958947,354,5832,2965
4.960148,418,6086,2837
4.961348,473,6180,2810
4.962549,403,6254,2741
4.963749,141,5957,2694
4.964950,154,6106,2699
4.966150,166,6150,2448
4.967351,-6,5972,2271
4.968551,-66,5977,2357
4.969752,28,5832,2319
4.970952,-81,5692,2187
4.972153,-167,5516,2353
4.998434,-397,5221,2310
4.999634,-320,5127,2219
5.000835,-542,4926,2224
5.002035,-748,4684,2104
5.003236,-654,4475,2018
5.004436,-552,4430,1791
5.005637,-486,4446,1556
5.006837,-725,4175,1427
5.008038,-610,4126,1283
5.009238,-906,4158,998
5.010439,-657,4091,773
5.011639,-846,4383,501
5.012839,-632,4429,17
5.014040,-755,4748,-56
5.015240,-1047,5001,14
5.016441,-963,5401,50
5.017641,-1056,6062,71
5.018842,-1016,6326,-158
5.020042,-1110,6633,57
5.021243,-1335,7341,-35
4.998593,-1287,7212,-133
4.999794,-1307,7378,-220
5.000994,-1449,7596,-401
5.002195,-1476,7438,-489
5.003395,-1624,7526,-578
5.004596,-2033,7332,-302
5.005796,-1829,7467,-259
5.006997,-2030,7306,473
5.008197,-1855,7576,674
5.009398,-1861,7770,795
5.010598,-1770,8374,1145
5.011799,-1779,8407,1024
5.012999,-1935,8438,1132
5.014200,-2178,8572,733
5.015400,-2174,8466,665
5.016601,-2094,8305,54
5.017801,-1999,8383,-93
5.019002,-1540,7969,-906
5.020202,-1719,8169,-1748
5.021403,-1827,7694,-2045
5.050419,-2004,7278,-3012
5.051619,-2221,6953,-3578
5.052820,-2229,6417,-4537
5.054020,-2366,5706,-5043
5.055221,-2392,4992,-5749
5.056421,-2491,4671,-6511
5.057622,-2395,4043,-6604
5.058822,-2369,3287,-7141
5.060022,-2425,2927,-7530
5.061223,-2661,2162,-8153
5.062423,-2756,1585,-8242
5.063624,-2628,958,-8410
5.064824,-2487,345,-8592
5.066025,-2426,-604,-8186
5.067225,-2252,-741,-7597
5.068426,-2159,-1391,-6546
5.069626,-1399,-1787,-11727
5.070827,-1269,-4148,-11598
5.072027,-975,-4957,-10303
5.073228,-1181,-6394,-9139
5.108719,-1143,-6672,-8388
5.109920,-983,-5571,-7017
5.111120,-934,-4849,-5886
5.112321,-745,-2886,-5152
5.113521,-654,-1249,-4902
5.114722,-685,-339,-4031
5.115922,-143,-159,-4140
5.117122,-323,-1174,-2547
5.118323,-635,-752,-1493
5.119523,-248,-770,-1542
5.120724,-316,334,-1824
5.121924,-367,447,-1762
5.123125,-491,639,-2593
5.124325,-648,528,-2540
5.125526,-721,467,-2661
5.126726,-673,605,-2979
5.127927,-780,527,-3218
5.129127,-818,489,-3337
5.130328,-702,582,-3347
5.131528,-668,632,-3396
5.108853,-560,564,-3161
5.110054,-445,527,-3143
5.111254,-394,513,-3177
5.112455,-250,546,-3276
5.113655,-30,619,-3363
5.114855,-203,891,-3413
5.116056,50,1091,-3731
5.117256,575,1872,-4165
5.118457,790,2758,-4381
5.119657,972,3414,-4739
5.120858,1000,3630,-5001
5.122058,969,3953,-5112
5.123259,968,4087,-5237
5.124459,1033,4059,-5418
5.125660,1087,3888,-5651
5.126860,1099,3572,-5769
5.128061,1091,3128,-6051
5.129261,1085,2930,-6207
5.130462,1168,2512,-6218
5.131662,1224,2078,-6212
5.154601,1301,1885,-6126
5.155802,1384,1603,-5994
5.157002,1381,1354,-5954
5.158203,1423,1233,-5866
5.159403,1384,1104,-5791
5.160604,1404,1031,-5809
5.161804,1542,742,-5760
5.163005,1545,526,-4697
5.164205,1637,348,-4394
5.165406,1693,203,-4566
5.166606,1746,162,-4612
5.167807,1732,6,-4491
5.169007,1712,-30,-4402
5.170208,1664,6,-4424
5.171408,1530,-13,-4233
5.172609,1516,109,-4356
5.173809,1483,2,-4254
5.175010,1282,3,-4175
5.176210,1295,242,-4184
5.177411,1274,389,-4062
5.199281,1285,756,-4050
5.200481,1340,767,-4233
5.201682,1498,665,-3825
5.202882,1257,880,-3460
5.204083,971,890,-4242
5.205283,1026,858,-4348
5.206484,1039,633,-4148
5.207684,1017,326,-4311
5.208885,1071,497,-4117
5.210085,1077,520,-5105
5.211286,1106,539,-5229
5.212486,1168,378,-5277
5.213687,1058,441,-5209
5.214887,958,819,-5279
5.216088,1068,1076,-5611
5.217288,1039,1115,-5673
5.218489,1035,1232,-5835
5.219689,1051,1159,-5545
5.220890,1068,1082,-5488
5.222090,1232,1040,-6070
5.248654,1218,699,-6367
5.249855,1048,416,-6270
5.251055,994,425,-6462
5.252255,1096,514,-6638
5.253456,1268,283,-6664
5.254656,1245,297,-6705
5.255857,1341,73,-6520
5.257057,1329,-75,-6441
5.258258,1340,-161,-6229
5.259458,1453,-234,-6210
5.260659,1443,-295,-6239
5.261859,1350,-289,-6167
5.263060,1323,-391,-6087
5.264260,1369,-329,-5909
5.265461,1412,-178,-5987
5.266661,1219,-283,-6265
5.267862,1378,-66,-6083
5.269062,1290,42,-6038
5.270263,1253,184,-6131
5.271463,1238,231,-6202
5.248774,1205,320,-6250
5.249974,1233,494,-6275
5.251175,1117,434,-6227
5.252375,1114,541,-6263
5.253576,1062,439,-6293
5.254776,1108,452,-6271
5.255977,1148,403,-6243
5.257177,1113,231,-6323
5.258378,1177,59,-6346
5.259578,1174,-113,-6321
5.260779,1289,-311,-6312
5.261979,1267,-624,-6347
5.263180,1283,-738,-6441
5.264380,1366,-837,-6505
5.265581,1399,-942,-6891
5.266781,1544,-1150,-6828
5.267981,1578,-1203,-6165
5.269182,1595,-1111,-6496
5.270382,1613,-1081,-6848
5.271583,1605,-837,-7212
5.294301,1653,-964,-7253
5.295502,1635,-826,-7228
5.296702,1518,-742,-7268
5.297903,1397,-698,-7117
5.299103,1233,-645,-7394
5.300304,1214,-289,-7328
5.301504,1214,-245,-7072
5.302704,1270,75,-6855
5.303905,1252,312,-6753
5.305105,1278,671,-6649
5.306306,1366,833,-6343
5.307506,1186,945,-6287
5.308707,1190,1164,-6102
5.309907,1260,1285,-5985
5.311108,1375,1630,-5911
5.312308,1087,1790,-5857
5.313509,1186,2027,-5804
5.314709,1252,2171,-5751
5.315910,1559,3354,-5065
5.317110,1147,3164,-5427
5.327738,1131,3244,-5895
5.328938,1247,2611,-5704
5.330139,886,3707,-6541
5.331339,1139,3768,-5762
5.332540,1015,3754,-5131
5.333740,1092,4050,-5192
5.334941,1068,4518,-5249
5.336141,1028,4861,-5584
5.337342,1019,5052,-5434
5.338542,943,5200,-5177
5.339743,924,5365,-5189
5.340943,1194,5752,-5233
5.342144,1103,5621,-4675
5.343344,1085,5356,-4518
5.344545,1120,5241,-4350
5.345745,1026,4799,-4105
5.346946,1048,4497,-4041
5.348146,1025,4075,-3902
5.349347,1047,3961,-3665
5.350547,1025,3561,-3569
5.368179,1018,3424,-3477
5.369380,1000,3299,-3290
5.370580,979,3046,-3141
5.371780,1007,2896,-3053
5.372981,1022,2764,-3102
5.374181,1104,2680,-2961
5.375382,1171,2639,-2968
5.376582,1291,2462,-2891
5.377783,1339,2350,-2877
5.378983,1371,2140,-2932
5.380184,1394,1982,-2943
5.381384,1465,1904,-2942
5.382585,1490,1894,-2890
5.383785,1772,1871,-2860
5.384986,1592,1868,-2871
5.386186,1643,1853,-2918
5.387387,1683,1754,-2946
5.388587,1702,1606,-2988
5.389788,1727,1282,-3065
5.390988,1759,1440,-3101
5.417325,1764,1363,-3093
5.418526,1783,1312,-3080
5.419726,1799,1274,-3119
5.420927,1794,1229,-3157
5.422127,1781,1230,-3175
5.423328,1774,1230,-3092
5.424528,1772,1193,-3037
5.425729,2039,1184,-2997
5.426929,1815,1140,-2932
5.428130,1825,1111,-2909
5.429330,1829,1144,-2800
5.430531,1829,1140,-2641
5.431731,1826,1136,-2429
5.432932,1842,1157,-2298
5.434132,1850,1121,-2255
5.435333,1847,1153,-2173
5.436533,1858,1157,-1984
5.437734,1865,1168,-1819
5.438934,1869,1169,-1751
5.440135,1894,1174,-1658
5.475656,1901,1197,-1565
5.476857,1876,1225,-1531
5.478057,1895,1254,-1393
5.479258,1907,1266,-1238
5.480458,1943,1252,-1178
5.481659,1948,1214,-1091
5.482859,1999,1209,-1027
5.484060,2030,1177,-966
5.485260,2051,1178,-938
5.486461,2101,1167,-849
5.487661,2163,1198,-772
5.488862,2230,1253,-725
5.490062,2282,1301,-664
5.491263,2342,1349,-616
5.492463,2397,1437,-574
5.493664,2440,1542,-507
5.494864,2525,1611,-374
5.496064,2582,1630,-341
5.497265,2623,1693,-341
5.498465,2685,1767,-335
5.503391,2718,1777,-297
5.504591,2751,1852,-245
5.505792,2799,1926,-243
5.506992,2833,1946,-215
5.508193,2894,1981,-152
5.509393,2919,1976,-148
5.510594,2949,1902,-75
5.511794,2988,1847,-74
5.512995,3032,1704,-52
5.514195,3042,1538,-79
5.515396,3021,1441,-113
5.516596,2975,1292,-164
5.517796,2948,1187,-184
5.518997,2884,1187,-236
5.520197,2808,1175,-219
5.521398,2747,1223,-212
5.522598,2705,1252,-187
5.523799,2666,1200,-140
5.524999,2629,1149,-131
5.526200,2582,1035,-80
5.566480,2561,877,-43
5.567681,2490,784,-17
5.568881,2497,655,85
5.570082,2495,441,69
5.571282,2465,96,125
5.572483,2517,138,199
5.573683,2538,-116,180
5.574884,2570,-304,220
5.576084,2635,-387,278
5.577285,2646,-571,347
5.578485,2661,-712,439
5.579685,2709,-774,493
5.580886,2737,-923,502
5.582086,2781,-974,518
5.583287,2818,-1062,599
5.584487,2823,-1069,622
5.585688,2815,-1078,664
5.586888,2852,-1058,744
5.588089,2878,-1092,725
5.589289,2958,-1033,747
5.566633,2958,-1023,755
5.567833,3005,-982,774
5.569034,2991,-972,785
5.570234,3084,-938,828
5.571435,3081,-925,814
5.572635,3128,-912,850
5.573836,3195,-876,887
5.575036,3195,-813,871
5.576237,3274,-723,910
5.577437,3316,-679,915
5.578638,3366,-532,941
5.579838,3437,-238,1032
5.581039,3537,-154,943
5.582239,3526,-8,952
5.583440,3494,188,964
5.584640,3529,266,932
5.585840,3564,331,911
5.587041,3568,394,880
5.588241,3603,409,844
5.589442,3610,403,735
5.602362,3594,389,639
5.603563,3610,408,605
5.604763,3606,387,535
5.605963,3585,360,452
5.607164,3328,368,440
5.608364,3566,362,369
5.609565,3550,360,382
5.610765,3551,340,415
5.611966,3545,313,415
5.613166,3530,281,390
5.614367,3521,265,471
5.615567,3514,208,455
5.616768,3498,120,460
5.617968,3497,100,459
5.619169,3474,-19,417
5.620369,3473,-159,380
5.621570,3452,-444,289
5.622770,3442,-344,232
5.623971,3421,-458,179
5.625171,3396,-553,110
5.641968,3351,-585,13
5.643169,3299,-610,106
5.644369,3253,-679,107
5.645569,3213,-699,-18
5.646770,3199,-782,-29
5.647970,3181,-876,-12
5.649171,3174,-894,-19
5.650371,3113,-927,89
5.651572,3114,-989,252
5.652772,3118,-1053,64
5.653973,3140,-1055,59
5.655173,3147,-1104,39
5.656374,3168,-1106,22
5.657574,3219,-1024,-7
5.658775,3170,-1002,10
5.659975,3195,-892,-19
5.661176,3194,-805,-123
5.662376,3230,-789,-227
5.663577,3225,-721,-334
5.664777,3210,-678,-388
5.690849,3097,-675,-400
5.692050,3082,-697,-566
5.693250,3050,-712,-633
5.694451,2967,-710,-605
5.695651,2882,-685,-514
5.696852,2796,-616,-389
5.698052,2714,-563,-261
5.699253,2636,-481,36
5.700453,2547,-535,332
5.701654,2314,-496,672
5.702854,2487,-426,635
5.704055,2434,-405,996
5.705255,2383,-398,1205
5.706456,2365,-321,1282
5.707656,2292,-374,1483
5.708857,2239,-398,1726
5.710057,2219,-378,1714
5.711258,2194,-458,1961
5.712458,2171,-537,2094
5.713659,2230,-597,2111
5.734742,2196,-771,2185
5.735943,2194,-876,2242
5.737143,2132,-999,2475
5.738344,2196,-1084,2588
5.739544,2339,-1300,2597
5.740745,2304,-1364,2499
5.741945,2280,-1583,2701
5.743145,2284,-1738,2807
5.744346,2421,-2039,3162
5.745546,2502,-1908,3165
5.746747,2518,-1976,3137
5.747947,2568,-2032,3458
5.749148,2592,-2006,3450
5.750348,2587,-2054,3830
5.751549,2686,-1932,3877
5.752749,2787,-1838,4013
5.753950,2826,-1687,3917
5.755150,2752,-1485,3810
5.756351,2843,-1206,4397
5.757551,2785,-1097,4378
5.778379,2934,-665,4253
5.779579,2886,-512,4543
5.780780,2800,-465,4580
5.781980,2820,-281,4496
5.783181,2758,-219,4371
5.784381,2810,-160,4939
5.785582,2747,-144,4616
5.786782,2714,-71,4443
5.787983,2691,-130,4979
5.789183,2618,-194,4935
5.790384,2606,-170,4746
5.791584,2567,-251,4915
5.792785,2548,-445,5205
5.793985,2629,-397,5190
5.795186,2810,-542,5120
5.796386,2550,-699,5337
5.797587,2507,-858,5469
5.798787,2556,-914,5462
5.799988,2583,-1135,5408
5.801188,2599,-1081,5677
5.826208,2554,-1296,5385
5.827409,2518,-1322,5712
5.828609,2539,-1508,5783
5.829810,2575,-1487,5629
5.831010,2551,-1599,5586
5.832211,2533,-1612,5836
5.833411,2626,-1605,5799
5.834612,2628,-1648,5696
5.835812,2568,-1680,5744
5.837013,2633,-1624,5806
5.838213,2655,-1606,5652
5.839414,2653,-1647,5820
5.840614,2685,-1538,5741
5.841815,2666,-1540,5497
5.843015,2594,-1531,5406
5.844216,2532,-1546,5457
5.845416,2514,-1576,5539
5.846616,2532,-1660,5290
5.847817,2489,-1708,5173
5.849017,2456,-1780,5189
5.826387,2496,-1731,5086
5.827587,2532,-1810,5027
5.828788,2581,-1841,4950
5.829988,2767,-1736,4991
5.831189,2963,-1715,4626
5.832389,3078,-1518,4307
5.833590,3141,-1263,4124
5.834790,3230,-828,3982
5.835991,3326,-797,3620
5.837191,3316,-456,3462
5.838392,3351,-176,3482
5.839592,3363,-29,3294
5.840793,3356,212,3267
5.841993,3321,471,3362
5.843194,3350,528,3346
5.844394,3300,733,3307
5.845595,3279,815,3400
5.846795,3208,850,3497
5.847996,3147,849,3595
5.849196,3125,811,3638
5.871398,3116,757,3733
5.872598,3093,710,3784
5.873799,3074,665,3808
5.874999,3065,608,3805
5.876200,3046,532,3803
5.877400,3034,490,3764
5.878601,3018,419,3725
5.879801,3004,277,3645
5.881002,2958,178,3554
5.882202,2955,-7,3471
5.883403,2929,-256,3417
5.884603,2883,-508,3285
5.885804,2839,-648,3189
5.887004,2563,-918,2881
5.888204,2759,-1180,3044
5.889405,2711,-1286,2977
5.890605,2655,-1479,2909
5.891806,2635,-1642,2865
5.893006,2579,-1838,2764
5.894207,2498,-1908,2676
5.917158,2467,-2086,2636
5.918359,2392,-2249,2721
5.919559,2435,-2304,2736
5.920760,2570,-2329,2716
5.921960,2629,-2320,2674
5.923161,2736,-2262,2464
5.924361,2869,-1950,2720
5.925562,2962,-1582,2657
5.926762,3087,-1149,2755
5.927963,3167,-970,2768
5.929163,3231,-440,2860
5.930364,3258,48,2921
5.931564,3306,510,2994
5.932764,3315,635,2889
5.933965,3293,960,2884
5.935165,3264,1151,2955
5.936366,3244,1244,2930
5.937566,3258,1304,3012
5.938767,3244,1282,3074
5.939967,3237,1209,3224
5.959565,3258,1045,3454
5.960765,3263,847,3584
5.961966,3290,686,3786
5.963166,3314,613,3945
5.964367,3335,501,4057
5.965567,3353,479,4101
5.966767,3353,448,4142
5.967968,3378,447,4156
5.969168,3364,482,4132
5.970369,3348,506,4074
5.971569,3351,519,4005
5.972770,3332,516,3957
5.973970,3318,489,3888
5.975171,3319,460,3832
5.976371,3311,351,3828
5.977572,3302,190,3852
5.978772,3331,-6,3948
5.979973,3320,-84,4041
5.981173,3334,-256,4101
5.982374,3349,-466,4096
6.003751,3335,-562,4000
6.004951,3222,-1441,2331
6.006152,3161,-1248,956
6.007352,2991,-1408,2736
6.008553,3054,-1143,4602
6.009753,3068,-1004,4891
6.010954,3024,-959,4621
6.012154,2904,-988,5422
6.013355,2899,-922,6807
6.014555,2920,-817,7083
6.015756,2826,-711,6921
6.016956,2698,-736,7444
6.018157,2647,-628,7997
6.019357,2551,-582,8332
6.020558,2448,-569,8453
6.021758,2362,-575,8578
6.022959,2350,-533,8543
6.024159,2326,-498,8434
6.025360,2265,-446,8358
6.026560,2259,-412,8377
6.052447,2257,-288,8162
6.053647,2243,-198,7813
6.054847,2275,14,7369
6.056048,2260,254,7122
6.057248,2232,654,6568
6.058449,2195,704,6026
6.059649,2176,1012,5792
6.060850,2142,1280,5354
6.062050,2084,1354,5036
6.063251,2082,1564,4700
6.064451,2089,1676,4521
6.065652,2051,1684,4208
6.066852,2034,1613,3854
6.068053,1953,1441,3451
6.069253,1919,1191,3343
6.070454,1855,1096,3005
6.071654,1786,822,2738
6.072855,1778,586,2618
6.074055,1749,259,2360
6.075256,1731,355,2126
6.095546,1718,247,2045
6.096746,1727,112,1819
6.097947,1730,58,1581
6.099147,1738,-21,1488
6.100348,1722,-162,1257
6.101548,1730,-252,1048
6.102749,1737,-429,786
6.103949,1740,-616,670
6.105149,1732,-784,533
6.106350,1778,-871,466
6.107550,1822,-1017,470
6.108751,1851,-1045,392
6.109951,1879,-1068,394
6.111152,1968,-1018,365
6.112352,1994,-1014,331
6.113553,2055,-976,278
6.114753,2134,-994,172
6.115954,2156,-1072,-104
6.117154,2278,-578,-127
6.118355,2658,-945,-323
6.144185,2537,-1508,-80
6.145386,2581,-1556,-25
6.146586,2615,-1702,-16
6.147787,2646,-1722,-5
6.148987,2654,-1761,-256
6.150188,2718,-1781,-27
6.151388,2786,-1772,58
6.152589,2797,-1685,-40
6.153789,2814,-1563,-63
6.154990,2847,-1494,-161
6.156190,2819,-1356,-359
6.157391,2845,-1192,-444
6.158591,2874,-980,-620
6.159792,2891,-864,-810
6.160992,2907,-677,-1021
6.162193,2916,-436,-1176
6.163393,2942,-27,-1383
6.164594,2923,-21,-1592
6.165794,2937,278,-1687
6.166995,2940,522,-1874
6.144332,2935,654,-2056
6.145532,2939,892,-2242
6.146733,2967,1110,-2339
6.147933,3022,1236,-2452
6.149134,3064,1388,-2545
6.150334,3085,1411,-2569
6.151535,3103,1513,-2725
6.152735,3181,1590,-2762
6.153936,3206,1666,-2814
6.155136,3270,1786,-2818
6.156337,3311,1853,-2940
6.157537,3378,1939,-3051
6.158738,3387,1913,-3062
6.159938,3340,1941,-3172
6.161139,3465,2152,-3283
6.162339,3659,2246,-3351
6.163540,3705,2195,-3538
6.164740,3790,2206,-3794
6.165941,3847,2256,-3913
6.167141,3908,2368,-4013
6.187907,3969,2394,-4242
6.189107,3934,2498,-4562
6.190308,4079,2543,-4712
6.191508,4193,2656,-4858
6.192709,4287,2661,-5198
6.193909,4201,2655,-5554
6.195110,4153,2626,-5763
6.196310,4028,2776,-6137
6.197511,3986,2766,-6469
6.198711,3965,2938,-6907
6.199912,3973,3019,-6968
6.201112,3953,2962,-7347
6.202313,3700,3081,-8115
6.203513,3592,2914,-7976
6.204714,3712,2205,-8022
6.205914,4038,2121,-8444
6.207115,4137,1831,-8512
6.208315,4233,1395,-8400
6.209516,4134,1014,-8176
6.210716,4087,591,-8164
6.235125,4144,182,-8175
6.236325,4165,-301,-7860
6.237526,4019,-641,-7845
6.238726,4009,-1009,-7734
6.239927,3935,-1368,-7564
6.241127,3944,-1755,-7348
6.242328,3935,-1788,-7201
6.243528,3928,-1957,-7092
6.244729,3951,-1995,-6812
6.245929,3949,-2000,-6522
6.247130,3917,-1833,-6359
6.248330,3888,-1544,-5983
6.249531,3831,-1363,-5611
6.250731,3760,-940,-5325
6.251932,3719,-540,-5191
6.253132,3615,-122,-4991
6.254333,3498,-54,-4823
6.255533,3457,185,-4747
6.256734,3344,326,-4602
6.257934,3267,389,-4486
6.269611,3191,456,-4365
6.270811,3171,516,-4294
6.272011,3100,533,-4204
6.273212,3020,549,-4079
6.274412,2973,558,-4016
6.275613,2894,549,-3873
6.276813,2802,559,-3700
6.278014,2676,531,-3374
6.279214,2622,539,-3444
6.280415,2493,544,-3244
6.281615,2347,531,-3078
6.282816,2318,548,-2969
6.284016,2187,537,-2744
6.285217,2093,512,-2508
6.286417,2043,507,-2128
6.287618,2048,480,-2095
6.288818,2013,480,-1792
6.290019,1972,426,-1425
6.291219,1973,368,-1224
6.292420,1978,232,-762
6.328021,2031,215,-317
6.329222,2104,28,166
6.330422,2208,-54,383
6.331623,2338,-105,782
6.332823,2405,-90,1175
6.334024,2404,-66,1371
6.335224,2457,-5,1877
6.336425,2511,-63,2412
6.337625,2571,-14,2899
6.338825,2661,57,3133
6.340026,2768,59,3734
6.341226,2869,116,4236
6.342427,2927,179,4520
6.343627,3027,454,5196
6.344828,3178,294,5959
6.346028,3261,394,6832
6.347229,3392,547,7029
6.348429,3522,560,7795
6.349630,3673,762,8648
6.350830,3746,1009,9053
6.360318,3857,1462,9840
6.361519,4078,1500,10885
6.362719,4194,1911,11332
6.363920,4378,2270,11932
6.365120,4453,2571,12635
6.366321,4370,2907,13131
6.367521,4351,3246,13344
6.368722,4389,3551,13756
6.369922,4387,3380,13811
6.371123,4461,3434,13794
6.372323,4508,3465,13484
6.373524,4124,3517,13618
6.374724,3660,3564,13167
6.375925,3468,3529,12818
6.377125,3311,3457,12360
6.378326,3315,3407,11801
6.379526,3053,3146,11354
6.380727,2723,2877,11064
6.381927,2515,2781,10026
6.383127,2175,2108,9452
6.417651,2113,1629,9139
6.418851,1980,1363,8600
6.420052,1886,783,8058
6.421252,1882,349,7825
6.422453,1883,-224,7537
6.423653,1767,-382,6588
6.424854,1816,-578,6030
6.426054,1817,-878,5883
6.427255,1795,-974,5142
6.428455,1839,-1170,4552
6.429656,1816,-1441,4252
6.430856,1836,-1646,3503
6.432057,1831,-1768,2789
6.433257,1840,-1983,2213
6.434458,1845,-2174,1844
6.435658,2488,-1508,2098
6.436859,2211,-3763,67
6.438059,1924,-5753,-389
6.439260,1863,-6252,-53
6.440460,2057,-6002,-312
6.417807,2144,-5075,-1167
6.419007,2333,-3967,-1444
6.420208,2496,-3460,-2226
6.421408,2667,-2539,-3058
6.422609,2745,-1955,-3416
6.423809,2927,-1541,-4113
6.425009,3098,-1705,-4700
6.426210,3194,-1920,-5228
6.427410,3354,-2356,-5485
6.428611,3508,-2600,-5861
6.429811,3619,-3166,-6163
6.431012,3648,-3711,-6295
6.432212,3671,-3919,-6471
6.433413,3618,-4186,-6643
6.434613,3665,-4280,-6747
6.435814,3780,-4233,-6978
6.437014,3766,-4182,-7348
6.438215,3656,-3983,-7733
6.439415,3593,-3630,-7901
6.440616,3526,-3180,-8233
6.455290,3515,-3014,-8504
6.456490,3517,-2560,-8618
6.457691,3520,-2121,-8793
6.458891,3528,-1899,-8932
6.460092,3600,-1484,-8879
6.461292,3598,-1155,-8858
6.462493,3562,-1019,-8723
6.463693,3461,-839,-8516
6.464893,3422,-687,-8383
6.466094,3315,-501,-8008
6.467294,3064,-394,-6946
6.468495,2948,611,-8689
6.469695,2931,1532,-9096
6.470896,2936,1744,-8059
6.472096,2947,2256,-7376
6.473297,2978,2838,-7042
6.474497,3032,3672,-7212
6.475698,3189,4075,-7530
6.476898,3251,4536,-7117
6.478099,3288,4653,-6462
6.495343,3245,4600,-5449
6.496543,3280,4378,-4573
6.497744,3308,3805,-4201
6.498944,3599,3228,-3967
6.500145,3703,2928,-3356
6.501345,3856,2524,-2719
6.502546,3928,2220,-2303
6.503746,4064,2077,-1774
6.504946,4201,1886,-1108
6.506147,4241,1697,-703
6.507347,4332,1741,187
6.508548,4432,1699,1267
6.509748,4461,1857,2365
6.510949,4516,2066,2947
6.512149,4748,2168,4292
6.513350,4906,2461,5551
6.514550,5001,3011,6129
6.515751,5177,3643,7559
6.516951,5237,3901,8859
6.518152,5538,4653,9732
6.601791,5397,5368,10549
6.602992,5522,5693,11596
6.604192,5510,6339,12267
6.605393,5461,6888,12481
6.606593,5373,7177,12805
6.607794,5244,7594,12935
6.608994,4898,7869,12570
6.610195,4807,7951,12497
6.611395,4391,7891,11833
6.612595,3923,7557,10818
6.613796,3730,6825,10309
6.614996,3379,6111,9018
6.616197,2923,5592,8125
6.617397,2480,4747,7794
6.618598,2420,3985,6924
6.619798,2322,3556,6362
6.620999,2263,2673,5746
6.622199,2130,1853,5072
6.623400,2003,551,4965
6.624600,2167,1129,4039
6.601971,1993,712,5237
6.603172,3079,-574,3894
6.604372,2899,-1576,-640
6.605573,2040,-5688,-330
6.606773,2101,-7908,-64
6.607974,2056,-8539,186
6.609174,1991,-8399,-61
6.610375,2118,-6762,-327
6.611575,2382,-4518,-952
6.612776,2723,-3574,-1734
6.613976,3027,-2330,-2734
6.615177,3219,-1818,-3156
6.616377,3432,-1894,-4048
6.617577,3563,-2284,-4760
6.618778,3622,-2894,-5074
6.619978,3700,-3434,-5557
6.621179,3711,-3629,-5955
6.622379,3709,-3783,-6398
6.623580,3686,-3798,-6499
6.624780,3649,-3744,-6899
6.637575,3602,-3541,-7376
6.638776,3580,-3254,-7622
6.639976,3528,-2876,-8104
6.641177,3492,-2661,-8571
6.642377,3463,-2265,-8769
6.643578,3445,-1905,-9070
6.644778,3454,-1771,-9288
6.645978,3454,-1599,-9357
6.647179,3451,-1585,-9335
6.648379,3436,-1602,-9163
6.649580,3391,-1652,-8904
6.650780,3082,-1606,-8466
6.651981,3206,-1398,-8347
6.653181,3092,-1224,-8007
6.654382,2979,-800,-7663
6.655582,2942,-358,-7521
6.656783,2845,123,-7248
6.657983,2694,225,-6942
6.659184,2338,534,-6790
6.660384,2485,828,-6485
6.677420,2369,962,-6247
6.678621,2294,1224,-5923
6.679821,2305,1538,-5744
6.681022,2384,1979,-5213
6.682222,2523,2020,-4439
6.683423,2950,2389,-3979
6.684623,3069,2892,-2974
6.685824,3344,3161,-2145
6.687024,3497,3502,-1264
6.688225,3509,3735,-966
6.689425,3667,4063,-77
6.690626,3899,3907,928
6.691826,4055,3975,1449
6.693027,4360,4032,2640
6.694227,4707,4136,2870
6.695428,6042,3904,5551
6.696628,5740,3362,7600
6.697828,5518,4047,9387
6.699029,5487,4121,10432
6.700229,5528,4849,11432
6.723669,5727,5480,13580
6.724870,5835,5963,15254
6.726070,5950,6963,16851
6.727271,5987,7812,17327
6.728471,5920,8262,18150
6.729672,5527,8808,18413
6.730872,5188,9074,18441
6.732073,4767,9008,17988
6.733273,4182,8946,16890
6.734474,3418,8318,15197
6.735674,3211,7664,13609
6.736875,3352,7095,11553
6.738075,3043,5607,10491
6.739276,2918,4515,10065
6.740476,2423,2490,9469
6.741676,2040,1502,7700
6.742877,2261,663,6606
6.744077,2212,-507,5594
6.745278,2081,-1208,3911
6.746478,1476,-2711,2834
6.723820,1279,-3487,2266
6.725021,1138,-3964,1369
6.726221,1078,-4115,442
6.727422,1080,-4221,-496
6.728622,1181,-4213,-532
6.729823,1292,-4212,-871
6.731023,1471,-4105,-1274
6.732224,1495,-4064,-1485
6.733424,1567,-4053,-1752
6.734625,1639,-4049,-2093
6.735825,1656,-4059,-2463
6.737026,1702,-4118,-2586
6.738226,1798,-4133,-3036
6.739427,1928,-4058,-3461
6.740627,1970,-4064,-3684
6.741828,2182,-4018,-4167
6.743028,2290,-3985,-4621
6.744229,2386,-3967,-4829
6.745429,2673,-3941,-5269
6.746630,2926,-3943,-5702
6.784326,3076,-3950,-5990
6.785527,3090,-3959,-6176
6.786727,3127,-3926,-6560
6.787928,3090,-3927,-6937
6.789128,3108,-3848,-7051
6.790329,3114,-3762,-7261
6.791529,3103,-3651,-7431
6.792730,3115,-3360,-7470
6.793930,3137,-2901,-7520
6.795131,3412,-2151,-7617
6.796331,4223,-1454,-7435
6.797531,4020,-844,-8249
6.798732,3773,-243,-7505
6.799932,3567,13,-7520
6.801133,3375,493,-7343
6.802333,3271,909,-7180
6.803534,3147,1408,-6751
6.804734,3063,1566,-6218
6.805935,3067,2079,-5996
6.807135,3149,2685,-5700
6.814825,3230,2922,-5527
6.816025,3292,3468,-5118
6.817226,3169,3898,-4418
6.818426,2670,4207,-4486
6.819627,2882,5060,-4881
6.820827,3113,5219,-4646
6.822028,3937,5080,-3465
6.823228,4364,4778,-2261
6.824429,4690,4052,-1403
6.825629,4803,3434,-954
6.826830,4952,3098,-310
6.828030,4946,2566,299
6.829231,5008,2321,816
6.830431,5039,2125,1545
6.831632,5165,2143,2026
6.832832,5325,2258,2753
6.834033,5128,2249,2822
6.835233,5106,2405,2980
6.836434,5050,2560,3234
6.837634,5025,2888,3298
6.854859,4893,3138,3291
6.856060,4747,3387,3154
6.857260,4706,3880,3016
6.858461,4593,4191,2914
6.859661,4484,4438,2813
6.860862,4395,4751,2623
6.862062,4273,5019,2542
6.863263,4113,5159,2405
6.864463,3935,5387,2405
6.865664,3632,5595,2299
6.866864,3802,5831,2257
6.868065,3632,5803,2164
6.869265,3523,5890,2001
6.870466,3481,5937,2002
6.871666,3280,5800,2075
6.872867,3219,5528,1880
6.874067,3181,4894,1759
6.875268,3236,4167,1690
6.876468,3260,3827,1728
6.877669,3305,3133,1747
6.905107,3236,2520,1738
6.906307,3150,2258,1844
6.907508,3005,1906,2034
6.908708,2965,1603,2132
6.909909,2836,1355,2292
6.911109,2732,1239,2540
6.912310,2604,1010,2844
6.913510,2547,724,2992
6.914711,2483,578,3248
6.915911,2460,227,3511
6.917112,2511,-186,3921
6.918312,2616,-733,3957
6.919513,2786,-982,4350
6.920713,3021,-1636,4848
6.921914,3145,-2322,4886
6.923114,3339,-2653,5141
6.924315,3472,-3488,5174
6.925515,3527,-4281,5019
6.926716,3350,-4653,3448
6.927916,3476,-4290,1219
6.945282,3780,-4047,963
6.946483,3603,-4849,1629
6.947683,3388,-4980,2655
6.948884,3607,-4286,1767
6.950084,3666,-4048,1706
6.951285,3519,-3763,2823
6.952485,3407,-3562,4051
6.953686,3304,-3367,5583
6.954886,3194,-2845,6194
6.956087,3224,-2637,7058
6.957287,3139,-2295,7842
6.958488,3109,-2040,8196
6.959688,3011,-1612,8957
6.960889,2962,-1584,8635
6.962089,3472,-1253,8867
6.963290,3762,-1043,10237
6.964490,3701,-964,11685
6.965691,3136,-454,11136
6.966891,2893,542,10082
6.968092,2517,1157,8336
6.997100,2193,1615,6661
6.998301,1935,1752,5892
6.999501,1800,2056,4035
7.000702,1659,2060,2382
7.001902,1618,2254,869
7.003103,1518,2337,317
7.004303,1678,2275,-461
7.005504,1690,2033,-1336
7.006704,2029,1956,-1672
7.007905,1836,1744,-2123
7.009105,1942,1725,-2740
7.010306,2044,1611,-3395
7.011506,2067,1618,-3667
7.012706,2058,1623,-4157
7.013907,2094,1831,-4852
7.015107,2111,2085,-5230
7.016308,2226,2477,-5843
7.017508,2551,2772,-6202
7.018709,3559,3336,-6757
7.019909,3109,3424,-6861
7.039265,2641,3921,-6646
7.040466,2749,4270,-7334
7.041666,2719,4613,-7647
7.042867,2866,4864,-8123
7.044067,2976,4912,-8577
7.045268,2704,4956,-8758
7.046468,2631,4893,-9170
7.047669,2447,4871,-9608
7.048869,2611,4901,-10059
7.050070,2603,4855,-10297
7.051270,2680,4875,-10719
7.052471,2595,4900,-10943
7.053671,2673,5067,-11084
7.054872,2529,5356,-11491
7.056072,1840,5710,-11947
7.057273,2443,6298,-12295
7.058473,2430,6470,-12440
7.059673,2367,6264,-12509
7.060874,2662,6142,-12210
7.062074,2943,5512,-10311
7.039443,2771,4893,-10018
7.040644,2869,4706,-8957
7.041844,3467,4558,-9787
7.043045,4113,3339,-7389
7.044245,3495,3814,-6474
7.045446,3311,3912,-6795
7.046646,3223,3811,-6501
7.047847,3134,3376,-7170
7.049047,2807,3317,-7274
7.050248,2825,3502,-8699
7.051448,2629,3161,-8256
7.052649,2667,3583,-9011
7.053849,2520,3127,-8942
7.055050,2626,3055,-8862
7.056250,2295,2738,-8127
7.057451,2500,2717,-7572
7.058651,2271,2407,-7342
7.059852,2359,2354,-7141
7.061052,2296,2215,-6181
7.062253,2166,2281,-5962
7.091279,2322,2113,-5613
7.092479,2128,2100,-5332
7.093680,2462,2001,-4270
7.094880,2304,1910,-3583
7.096081,2201,1952,-3695
7.097281,2402,1613,-2877
7.098482,2285,1697,-2960
7.099682,2378,1604,-2465
7.100883,2256,1562,-2088
7.102083,2202,1504,-2140
7.103284,2429,1376,-1116
7.104484,2413,1115,-786
7.105685,2367,725,-262
7.106885,2367,535,498
7.108086,2369,-73,863
7.109286,2547,-879,1722
7.110487,2571,-1325,2458
7.111687,2661,-2141,3206
7.112887,2739,-2698,3495
7.114088,2820,-2818,4033
7.131850,3089,-2790,4409
7.133051,3196,-2547,4492
7.134251,3344,-2371,4576
7.135452,3470,-2383,4690
7.136652,3513,-2485,4765
7.137853,3533,-2671,4922
7.139053,3497,-2972,5195
7.140254,3391,-3097,5517
7.141454,3357,-3254,5623
7.142655,3345,-3295,5866
7.143855,3319,-3277,6044
7.145056,3391,-3211,6127
7.146256,3379,-3062,6126
7.147457,3344,-3028,5995
7.148657,3285,-2961,5832
7.149858,3308,-2971,5740
7.151058,3250,-3006,5635
7.152259,3137,-3057,5467
7.153459,3065,-3095,5183
7.154659,3013,-3083,5330
7.178343,2928,-3069,5244
7.179544,2932,-2776,5166
7.180744,2963,-2248,5112
7.181945,2964,-1700,4983
7.183145,2985,-1244,4853
7.184346,2970,-495,4753
7.185546,3002,246,4574
7.186747,3002,624,4369
7.187947,3080,1365,4129
7.189147,3217,2168,4087
7.190348,3275,3013,3847
7.191548,3541,3307,3748
7.192749,3686,4168,3468
7.193949,3789,5093,3015
7.195150,3920,5450,2417
7.196350,4115,6050,1684
7.197551,4251,6385,1256
7.198751,4499,6517,333
7.199952,4692,6500,-797
7.201152,5068,6396,-1311
7.214632,5010,6210,-2616
7.215832,4996,6129,-4126
7.217033,5027,6034,-4876
7.218233,4865,6101,-4374
7.219434,1583,8310,-8384
7.220634,2861,8167,-12113
7.221835,3466,6447,-10884
7.223035,4106,4737,-8813
7.224236,4239,4133,-6741
7.225436,4163,3489,-4888
7.226637,4158,3261,-4467
7.227837,4077,3564,-4269
7.229038,4723,3695,-6116
7.230238,5131,3598,-5200
7.231439,5390,3279,-4399
7.232639,5308,3574,-4797
7.233840,5039,3102,-3951
7.235040,4694,2789,-4398
7.236241,4563,2655,-4166
7.237441,4595,2429,-3371
7.265025,4395,2200,-3030
7.266226,4316,2069,-2765
7.267426,4260,2010,-2620
7.268627,4157,1871,-2388
7.269827,4133,1550,-1904
7.271028,3924,1513,-1743
7.272228,3678,1251,-1747
7.273429,3609,952,-1707
7.274629,3448,790,-1749
7.275830,3458,652,-1799
7.277030,3458,470,-1864
7.278230,3317,310,-2056
7.279431,3291,283,-2086
7.280631,3291,167,-2299
7.281832,3246,21,-2446
7.283032,3252,-50,-2780
7.284233,3187,-87,-3027
7.285433,3214,-67,-3101
7.286634,3222,-4,-3352
7.287834,3172,48,-3477
7.310171,3188,205,-3625
7.311371,3191,359,-3835
7.312572,3147,420,-3944
7.313772,3102,589,-4124
7.314973,3066,855,-4095
7.316173,3080,999,-4047
7.317374,2911,1076,-4271
7.318574,2778,1157,-3892
7.319774,2500,1020,-4317
7.320975,2237,978,-4458
7.322175,2196,765,-4121
7.323376,2114,186,-3876
7.324576,2081,-1313,-3194
7.325777,2148,-2652,-1425
7.326977,3007,-6304,990
7.328178,3580,-9353,2274
7.329378,4437,-10199,3837
7.330579,4477,-9400,4173
7.331779,4235,-7136,3079
7.332980,3746,-4489,2501
7.310346,3439,-3315,980
7.311546,3372,-1511,-116
7.312747,3335,-687,-391
7.313947,3287,-571,-433
7.315148,3217,-642,142
7.316348,3180,-900,627
7.317549,3159,-1119,1762
7.318749,3174,-1135,2865
7.319950,3213,-978,3605
7.321150,3254,-606,4154
7.322351,3345,-397,4682
7.323551,3449,-75,4934
7.324752,3496,35,4986
7.325952,3557,-4,4929
7.327153,3591,-116,4725
7.328353,3678,-298,4588
7.329554,3723,-487,4227
7.330754,4013,-719,3861
7.331955,4499,-1512,3328
7.333155,4481,-1786,3159
7.357045,4010,-842,3152
7.358245,3865,-91,2699
7.359446,4469,703,2103
7.360646,4279,1477,2009
7.361847,4296,2106,1784
7.363047,4269,3245,1416
7.364248,4293,4301,1203
7.365448,4378,5104,611
7.366649,4322,5369,87
7.367849,4587,5676,-401
7.369050,4387,5598,-645
7.370250,4522,5567,-1093
7.371451,4584,5369,-1646
7.372651,4649,5239,-1908
7.373852,4734,5226,-2264
7.375052,4632,5139,-2627
7.376253,4568,4804,-2752
7.377453,4465,4377,-2966
7.378653,4429,4197,-3319
7.379854,4396,3907,-3697
7.425427,4346,3653,-3877
7.426628,4292,3553,-4296
7.427828,4222,3391,-4710
7.429029,4223,3258,-4888
7.430229,4500,3206,-5005
7.431430,4874,3404,-5133
7.432630,4882,3721,-5057
7.433831,4929,3855,-5007
7.435031,4842,3795,-5260
7.436232,4667,3666,-5441
7.437432,4603,3484,-5355
7.438633,4450,3663,-5063
7.439833,3021,4096,-6185
7.441033,3411,3821,-6688
7.442234,3596,2889,-6226
7.443434,3591,2059,-5857
7.444635,3444,2013,-5250
7.445835,3355,1299,-4809
7.447036,3226,768,-3790
7.448236,3075,513,-3458
7.472778,2993,-38,-2831
7.473979,2961,-347,-2508
7.475179,2891,-565,-2042
7.476380,2931,-845,-1561
7.477580,2974,-1209,-1352
7.478780,2697,-1841,-570
7.479981,2737,-2050,-9
7.481181,2899,-2352,76
7.482382,2948,-2598,176
7.483582,3067,-2676,394
7.484783,3142,-2782,503
7.485983,3170,-2670,396
7.487184,3294,-2639,312
7.488384,3304,-2561,69
7.489585,3352,-2308,-68
7.490785,3399,-1993,-423
7.491986,3393,-1858,-993
7.493186,3545,-1236,-1603
7.494387,3603,-558,-1907
7.495587,3649,26,-2556
7.519915,3686,280,-3249
7.521116,3693,725,-4081
7.522316,3675,1055,-4050
7.523517,3630,1186,-4332
7.524717,3569,1346,-4515
7.525918,3536,1482,-4546
7.527118,3482,1515,-4450
7.528319,3441,1517,-4238
7.529519,3439,1474,-3877
7.530720,3431,1372,-3951
7.531920,3426,1319,-4968
7.533121,2372,-865,-1150
7.534321,1879,-8631,2871
7.535522,1913,-19001,12346
7.536722,4503,-22334,18804
7.537923,5089,-17675,18543
7.539123,4090,-7611,12857
7.540324,2918,-3416,5765
7.541524,4797,-255,1097
7.542724,6504,-1154,-2850
7.547277,4507,-3420,-822
7.548477,3107,-3189,1842
7.549678,2671,-2199,2293
7.550878,2427,-1473,2806
7.552079,2561,-799,3623
7.553279,2844,305,3433
7.554480,2858,1363,2985
7.555680,2885,2064,2949
7.556881,2961,2687,1976
7.558081,3056,3071,1879
7.559282,3184,3637,1064
7.560482,3259,3877,473
7.561683,3163,4665,462
7.562883,3371,5290,70
7.564084,3446,5797,-204
7.565284,3737,6650,-700
7.566485,3844,6912,-984
7.567685,4155,7022,-1625
7.568885,4071,7004,-1332
7.570086,4319,7179,-1856
7.593307,4441,6772,-2165
7.594507,4582,6452,-2762
7.595708,4789,5565,-3363
7.596908,4836,4665,-3715
7.598109,4890,4174,-4173
7.599309,4778,4038,-4356
7.600510,4628,3921,-4353
7.601710,4456,3785,-4253
7.602910,4278,3670,-4023
7.604111,4117,3386,-3817
7.605311,4043,3247,-3657
7.606512,4011,3212,-3233
7.607712,3980,3230,-2899
7.608913,3930,3203,-2773
7.610113,3906,3199,-2614
7.611314,3902,3158,-2599
7.612514,4340,3195,-2812
7.613715,4460,3669,-2952
7.614915,4320,3802,-3189
7.616116,4294,3775,-3197
7.645222,4224,3335,-3201
7.646423,4137,2778,-3356
7.647623,4110,2557,-3393
7.648824,4001,2176,-3415
7.650024,3956,1890,-3390
7.651225,3836,1749,-3360
7.652425,3700,1442,-3361
7.653626,3614,1170,-3371
7.654826,3568,942,-3302
7.656027,3458,853,-3055
7.657227,3443,706,-2897
7.658428,3404,415,-2954
7.659628,3353,237,-3066
7.660829,2972,-36,-2698
7.662029,2372,-141,-3591
7.663230,2637,-488,-7029
7.664430,2942,-796,-5795
7.665631,3006,-917,-5184
7.666831,3132,-774,-5069
7.668031,3121,-847,-3940
7.645419,3091,-657,-4065
7.646620,3054,-587,-3930
7.647820,3051,-634,-3660
7.649021,3024,-776,-2754
7.650221,3023,-972,-1844
7.651422,2975,-1167,-1458
7.652622,3036,-1441,-1226
7.653823,3054,-1472,-597
7.655023,3072,-1661,-409
7.656224,3133,-1736,-61
7.657424,3304,-1701,325
7.658625,3423,-1672,584
7.659825,3509,-1557,543
7.661026,3634,-1514,675
7.662226,3686,-1436,602
7.663427,3694,-1368,643
7.664627,3737,-1249,575
7.665828,3776,-1208,479
7.667028,3768,-1097,468
7.668229,3778,-932,341
7.692057,3768,-827,121
7.693258,3790,-652,-127
7.694458,3800,-459,-271
7.695659,3806,-260,-479
7.696859,3797,-269,-571
7.698060,3770,-413,-570
7.699260,3827,-469,-616
7.700461,3976,-470,-613
7.701661,3956,-667,-370
7.702862,3976,-778,-136
7.704062,3940,-795,131
7.705263,3965,-723,197
7.706463,3906,-677,741
7.707664,3945,-463,722
7.708864,3878,-407,856
7.710065,3835,-421,1158
7.711265,3781,-193,1286
7.712466,3921,-163,1199
7.713666,3826,-86,1531
7.714867,3806,44,1945
7.740443,3845,355,1865
7.741643,3835,416,1914
7.742844,3774,453,2145
7.744044,3776,544,2229
7.745245,3731,615,2277
7.746445,3775,697,1832
7.747646,3819,659,1820
7.748846,3767,498,2547
7.750047,3687,491,2341
7.751247,3592,438,2601
7.752447,3658,624,2582
7.753648,3730,692,1952
7.754848,3723,664,1463
7.756049,3672,679,1630
7.757249,3668,486,1733
7.758450,3822,695,1213
7.759650,3688,680,1153
7.760851,3714,633,1454
7.762051,3785,817,874
7.763252,3802,678,815
7.787620,3721,594,476
7.788821,3691,680,888
7.790021,3751,903,318
7.791222,3687,960,397
7.792422,3638,1511,509
7.793623,3617,1451,-685
7.794823,3414,1152,1744
7.796024,3553,2007,-258
7.797224,3316,2572,479
7.798425,3246,2643,2178
7.799625,3131,2430,1926
7.800826,3499,1009,2906
7.802026,3786,645,145
7.803227,3767,446,1857
7.804427,3939,1246,-559
7.805628,3770,1174,846
7.806828,3831,1874,684
7.808028,3714,1367,977
7.809229,3590,1598,66
7.810429,3545,1080,2370
7.833793,3733,1730,-70
7.834994,3649,957,699
7.836194,3622,1443,394
7.837395,3355,1240,363
7.838595,3812,447,1107
7.839796,3749,1072,83
7.840996,3438,818,42
7.842197,3460,513,-71
7.843397,3595,1030,-605
7.844598,3096,310,494
7.845798,3438,500,272
7.846999,3676,1254,-627
7.848199,3590,1019,144
7.849399,3270,934,251
7.850600,3641,1587,-352
7.851800,3555,1560,85
7.853001,3535,2037,-52
7.854201,3216,1977,63
7.855402,3181,1944,-424
7.856602,3413,2969,-1065
7.877831,3057,2581,-531
7.879032,3049,2790,-1796
7.880232,3126,3262,-1971
7.881433,3182,3541,-1055
7.882633,2823,4384,-21
7.883834,2787,3093,427
7.885034,2491,1386,-956
7.886235,2510,559,-1933
7.887435,2764,-487,-2231
7.888636,2902,-681,-2148
7.889836,3211,-488,-1531
7.891037,3396,16,-830
7.892237,3371,525,-738
7.893438,3236,829,-912
7.894638,3146,914,-1432
7.895839,3179,1162,-2017
7.897039,3189,1344,-2382
7.898240,3082,1348,-3028
7.899440,2918,1340,-3650
7.900640,2885,1296,-3804
7.924762,2826,1162,-4200
7.925963,2713,1168,-4583
7.927163,2694,1328,-4596
7.928364,2765,1559,-4410
7.929564,2730,1651,-4258
7.930765,2712,1867,-4069
7.931965,2721,2025,-3970
7.933166,2731,2243,-3742
7.934366,2742,2448,-3619
7.935567,2728,2730,-3436
7.936767,2682,3097,-3326
7.937968,2791,3304,-3053
7.939168,2807,3571,-2764
7.940369,2807,3774,-2650
7.941569,2870,3975,-2484
7.942769,2952,4001,-2267
7.943970,2987,4037,-2215
7.945170,2979,3784,-2149
7.946371,2956,3746,-2244
7.947571,2939,3564,-2297
7.924907,2913,3377,-2304
7.926108,2892,3307,-2313
7.927308,2916,3174,-2298
7.928509,2949,3110,-2293
7.929709,2959,2978,-2230
7.930910,2993,3023,-2287
7.932110,2930,2951,-2133
7.933311,2839,2734,-2091
7.934511,2832,2742,-2075
7.935712,2764,2574,-2040
7.936912,2804,2445,-2136
7.938113,2804,2404,-2058
7.939313,2781,2260,-1887
7.940514,2756,2294,-1846
7.941714,2712,2215,-1857
7.942914,2677,2239,-2034
7.944115,2683,2236,-2134
7.945315,2653,2221,-2054
7.946516,2498,2237,-2149
7.947716,2486,2055,-2053
7.973306,2363,1844,-2110
7.974507,2369,1728,-2184
7.975707,2439,1661,-2215
7.976908,2410,1564,-2257
7.978108,2403,1416,-2386
7.979309,2326,1323,-2360
7.980509,2247,1187,-2412
7.981710,2241,1075,-2473
7.982910,2338,1013,-2494
7.984111,2293,786,-2657
7.985311,2252,897,-2674
7.986512,2232,851,-2731
7.987712,2214,738,-2798
7.988913,2223,730,-2948
7.990113,2192,722,-2934
7.991314,2179,767,-2990
7.992514,2195,797,-3137
7.993714,2045,878,-3189
7.994915,2041,1006,-3171
7.996115,1840,981,-3257
8.039305,1782,1032,-3166
8.040505,1796,1092,-3144
8.041706,1861,1335,-3130
8.042906,1786,1365,-3085
8.044107,1859,1667,-3049
8.045307,1774,1955,-3035
8.046508,1676,2085,-2878
8.047708,1625,2201,-2911
8.048909,1636,2338,-3003
8.050109,1671,2422,-2804
8.051310,1686,2499,-2746
8.052510,1724,2702,-2789
8.053710,1532,2678,-2763
8.054911,1531,2581,-2636
8.056111,1515,2613,-2673
8.057312,1547,2632,-2604
8.058512,1611,2588,-2628
8.059713,1553,2557,-2651
8.060913,1526,2619,-2697
8.062114,1460,2510,-2589
8.039491,1477,2469,-2536
8.040691,1544,2422,-2562
8.041892,1449,2423,-2396
8.043092,1476,2407,-2350
8.044293,1541,2384,-2308
8.045493,1582,2537,-2178
8.046694,1437,2490,-2127
8.047894,1314,2600,-1772
8.049095,1286,2675,-1509
8.050295,1200,2971,-1824
8.051495,1325,3542,-1414
8.052696,1319,3671,-1074
8.053896,1417,4394,-861
8.055097,1246,4854,-366
8.056297,1317,5374,-117
8.057498,1529,5394,341
8.058698,1591,5735,584
8.059899,1750,6126,874
8.061099,1893,6325,1151
8.062300,2109,6728,1472
8.088877,2009,6865,1805
8.090078,2137,6795,1765
8.091278,2244,6884,1649
8.092479,2325,6758,1542
8.093679,2398,6474,1338
8.094880,2566,6338,1057
8.096080,2953,6399,513
8.097281,2940,7098,607
8.098481,2351,6212,906
8.099682,2041,5716,-1131
8.100882,2455,5520,-740
8.102082,3001,5903,-1476
8.103283,2756,5927,-1440
8.104483,2650,6210,-1951
8.105684,2553,6264,-1852
8.106884,2600,6313,-1924
8.108085,2790,6589,-2100
8.109285,2639,6670,-2230
8.110486,2554,6571,-2488
8.111686,2427,6561,-2652
8.134186,2362,6336,-2831
8.135387,2338,6148,-2897
8.136587,2345,6108,-3025
8.137788,2331,5901,-3095
8.138988,2256,5649,-3100
8.140189,2161,5367,-2932
8.141389,2078,5121,-2814
8.142590,1801,4749,-2335
8.143790,1988,4275,-2297
8.144990,1881,4079,-1855
8.146191,1742,3564,-1670
8.147391,1746,3182,-1374
8.148592,1818,3034,-1195
8.149792,1852,2850,-952
8.150993,1904,2829,-910
8.152193,1969,2886,-856
8.153394,2002,2933,-891
8.154594,1952,3068,-914
8.155795,1916,3111,-921
8.156995,1854,2846,-1161
8.189277,1790,3030,-1314
8.190478,1830,3054,-1450
8.191678,1824,3103,-1655
8.192879,1826,3137,-1647
8.194079,1823,3178,-1693
8.195280,1814,3158,-1650
8.196480,1850,3178,-1474
8.197681,1861,3096,-1370
8.198881,1852,3054,-1306
8.200082,1847,3014,-1174
8.201282,1847,3029,-1163
8.202483,1853,3026,-1181
8.203683,1845,3013,-1174
8.204884,1892,3007,-1135
8.206084,1868,3018,-1010
8.207285,1857,2993,-974
8.208485,1860,3033,-964
8.209686,1855,3089,-898
8.210886,1840,3122,-935
8.212087,1793,3233,-911
8.219288,1847,3233,-924
8.220489,1843,3275,-971
8.221689,1823,3276,-987
8.222890,1805,3267,-1082
8.224090,1814,3210,-1159
8.225291,1868,3164,-1211
8.226491,1869,3126,-1311
8.227692,1822,3143,-1340
8.228892,1820,3090,-1444
8.230093,1795,3068,-1432
8.231293,1846,3020,-1549
8.232494,1797,3025,-1609
8.233694,1821,3037,-1637
8.234895,1823,-4768,9956
8.236095,-89,-8828,23510
8.237296,-4730,-13640,21750
8.238496,-3455,-1062,13444
8.239697,897,6789,-13258
8.240897,3139,9043,-23032
8.242098,769,7939,-12971
8.219475,1694,6430,-8979
8.220676,1752,6979,-8056
8.221876,2198,6253,-4971
8.223077,2348,6353,-4108
8.224277,1957,5739,-3906
8.225478,1616,5109,-3375
8.226678,2130,4210,-1993
8.227879,1917,4029,-1989
8.229079,1794,4110,-2031
8.230280,1438,4033,-1815
8.231480,1500,3492,-1603
8.232681,1607,3434,-1880
8.233881,1792,3358,-2320
8.235082,1855,3578,-2599
8.236282,1798,3755,-3243
8.237483,1596,3812,-3746
8.238683,1512,3777,-4257
8.239884,1453,3777,-4429
8.241084,1433,4044,-4613
8.242285,1374,3920,-4704
8.267023,1377,4066,-4641
8.268224,1336,4277,-4382
8.269424,1369,4367,-4123
8.270625,1361,4518,-3947
8.271825,1339,4616,-3876
8.273026,1293,4610,-3767
8.274226,1437,4551,-3600
8.275427,1496,4380,-3417
8.276627,1572,4053,-2595
8.277828,1747,3870,-388
8.279028,1733,3413,1082
8.280229,1664,3867,932
8.281429,1487,4287,1052
8.282630,1461,4212,596
8.283830,1477,4268,302
8.285030,1477,4267,-449
8.286231,1396,4207,-1201
8.287431,1324,4036,-1816
8.288632,1287,3865,-2131
8.289832,1128,3684,-2514
8.314968,1088,3314,-2664
8.316168,1132,3050,-2691
8.317369,1162,2905,-2709
8.318569,1146,2837,-2590
8.319770,1169,2804,-2515
8.320970,1178,2826,-2357
8.322171,1177,2859,-2245
8.323371,1194,2884,-2222
8.324572,1172,2909,-2224
8.325772,1189,2898,-2301
8.326973,1147,2880,-2436
8.328173,1161,2905,-2479
8.329374,1127,2861,-2667
8.330574,1144,2839,-2754
8.331774,1113,2846,-2825
8.332975,1086,2791,-2846
8.334175,1042,2810,-2877
8.335376,978,2783,-2870
8.336576,956,2774,-3069
8.337777,950,2751,-2850
8.361862,1004,2720,-2800
8.363063,1011,2700,-2784
8.364263,1050,2665,-2764
8.365464,1103,2694,-2770
8.366664,1080,2772,-2772
8.367865,1094,2849,-2781
8.369065,1138,2950,-2797
8.370266,1169,3029,-2792
8.371466,1200,3147,-2750
8.372666,1229,3247,-2687
8.373867,1261,3558,-2671
8.375067,1284,3392,-2617
8.376268,1266,3468,-2585
8.377468,1308,3484,-2549
8.378669,1294,3519,-2566
8.379869,1283,3503,-2644
8.381070,1284,3515,-2648
8.382270,1301,3506,-2674
8.383471,1278,3528,-2692
8.384671,1262,3618,-2615
8.437701,1239,3709,-2529
8.438901,1230,3748,-2335
8.440102,1240,3844,-2117
8.441302,1283,3893,-2024
8.442503,1343,3980,-1862
8.443703,1407,4050,-1725
8.444903,1377,4036,-1653
8.446104,1408,3948,-1624
8.447304,1455,3874,-1574
8.448505,1474,3782,-1632
8.449705,1487,3728,-1697
8.450906,1534,3693,-1811
8.452106,1528,3718,-1932
8.453307,1534,3688,-1991
8.454507,1473,3650,-2129
8.455708,1418,3576,-2225
8.456908,1370,3442,-2349
8.458109,1390,3257,-2489
8.459309,1364,3289,121
8.460510,756,-3505,15294
8.437849,1672,-3556,20666
8.439050,1444,-337,20680
8.440250,632,1234,6603
8.441451,1754,4137,-8906
8.442651,1375,4014,-11490
8.443852,643,3685,-11441
8.445052,516,3738,-10319
8.446253,483,4375,-10416
8.447453,441,4636,-11094
8.448654,396,4880,-11604
8.449854,350,4474,-11285
8.451055,336,3846,-10908
8.452255,453,3602,-9951
8.453455,691,3266,-9028
8.454656,802,3164,-8498
8.455856,925,2846,-7671
8.457057,994,2852,-6393
8.458257,1053,2646,-5783
8.459458,1170,2807,-4799
8.460658,1305,2953,-3237
8.505371,1394,3485,-799
8.506571,1202,3099,19
8.507772,1352,3147,399
8.508972,1426,3023,764
8.510173,1402,2934,697
8.511373,1305,2907,505
8.512574,1189,2883,50
8.513774,1068,2821,-555
8.514975,1045,2775,-864
8.516175,963,2810,-1580
8.517375,870,2773,-2093
8.518576,817,2754,-2316
8.519776,889,2852,-2698
8.520977,730,2855,-2724
8.522177,724,2909,-3061
8.523378,747,3079,-2790
8.524578,770,3014,-2658
8.525779,971,3304,-2634
8.526979,1091,3578,-2655
8.528180,1117,3769,-2581
8.505518,1249,3870,-2591
8.506718,1294,3807,-2551
8.507919,1239,3713,-2516
8.509119,1300,3658,-2529
8.510320,1282,3561,-2644
8.511520,1283,3489,-2663
8.512721,1303,3491,-2713
8.513921,1332,3494,-2733
8.515122,1294,3503,-2731
8.516322,1284,3418,-2681
8.517523,1323,3439,-2695
8.518723,1292,3430,-2710
8.519924,1268,3335,-2651
8.521124,1255,3259,-2665
8.522325,1281,3222,-2688
8.523525,1234,3161,-2684
8.524726,1229,3020,-2689
8.525926,1199,3014,-2774
8.527127,1220,2983,-2754
8.528327,1190,2886,-2798
8.555388,1213,2805,-2798
8.556588,1230,2775,-2804
8.557789,1249,2715,-2813
8.558989,1251,2679,-2749
8.560190,1270,2689,-2697
8.561390,1279,2673,-2688
8.562591,1249,2691,-2662
8.563791,1269,2677,-2619
8.564992,1274,2736,-2610
8.566192,1229,2705,-2627
8.567393,1235,2703,-2687
8.568593,1231,2678,-2716
8.569794,1191,2690,-2709
8.570994,1178,2623,-2726
8.572195,1148,2348,-2749
8.573395,1149,2528,-2745
8.574596,1145,2514,-2753
8.575796,1143,2512,-2712
8.576996,1120,2514,-2603
8.578197,1115,2509,-2559
8.604374,1154,2589,-2516
8.605575,1165,2627,-2378
8.606775,1772,2604,23573
8.607976,2831,296,32764
8.609176,-965,3587,32764
8.610377,2631,5487,-3184
8.611577,1698,4301,-11652
8.612778,834,2041,-10582
8.613978,791,1452,-6434
8.615179,404,1375,-7950
8.616379,291,2349,-8891
8.617580,578,3057,-9978
8.618780,345,3143,-9634
8.619981,178,3272,-9049
8.621181,156,3432,-8868
8.622382,223,3506,-8376
8.623582,363,3523,-7898
8.624783,436,3348,-7728
8.625983,666,3075,-7489
8.627184,795,2936,-7261
8.634505,894,2808,-6933
8.635706,916,2767,-7012
8.636906,925,2755,-6854
8.638107,951,2805,-6650
8.639307,975,2896,-6581
8.640508,966,3015,-6341
8.641708,934,3054,-5975
8.642909,936,3107,-5569
8.644109,847,3137,-5508
8.645310,746,3121,-5036
8.646510,722,3208,-4245
8.647711,543,3664,-3710
8.648911,-96,5067,-4265
8.650112,-3,5173,-4723
8.651312,496,5556,-4494
8.652513,620,6922,-3691
8.653713,1083,8221,-1717
8.654914,557,8000,-680
8.656114,769,7394,-797
8.657315,982,6516,-405
8.682646,881,6139,-394
8.683847,1236,5150,-316
8.685047,1041,3913,-696
8.686248,1099,3410,-1094
8.687448,1266,2639,-1561
8.688649,1218,1876,-1837
8.689849,1032,1286,-1991
8.691050,1034,1114,-2268
8.692250,793,850,-2409
8.693451,1007,664,-2477
8.694651,939,560,-2588
8.695852,944,566,-2555
8.697052,910,587,-2495
8.698253,918,612,-2441
8.699453,981,739,-2399
8.700654,996,883,-2448
8.701854,1024,1029,-2469
8.703055,1114,1150,-2472
8.704255,1224,1363,-2513
8.705456,1279,1629,-2567
8.729424,1360,1787,-2677
8.730624,1317,2044,-2740
8.731825,1298,2299,-2750
8.733025,1272,2569,-2799
8.734226,1252,2702,-2779
8.735426,1233,2911,-2752
8.736627,1221,3099,-2721
8.737827,1247,3163,-2639
8.739028,1252,3283,-2584
8.740228,1267,3368,-2558
8.741429,1266,3378,-2474
8.742629,1277,3393,-2382
8.743830,1293,3424,-2290
8.745030,1286,3435,-2252
8.746231,1315,3457,-2175
8.747431,1321,3455,-2098
8.748632,1318,3462,-2061
8.749832,1325,3467,-1998
8.751033,1347,3480,-1905
8.752233,1374,3486,-1866
8.775678,1369,3476,-1815
8.776878,1373,3435,-1761
8.778079,1359,3402,-1730
8.779279,1376,3366,-1715
8.780480,1359,3091,-1744
8.781680,1400,3272,-1835
8.782880,1397,3213,-1873
8.784081,1376,3132,-1951
8.785281,1373,3110,-2059
8.786482,1361,3035,-2097
8.787682,1358,2623,20899
8.788883,1453,3866,32764
8.790083,60,5577,10959
8.791284,3836,5026,2017
8.792484,3822,3038,-1405
8.793685,2012,2679,-3325
8.794885,365,2196,-5476
8.796086,-2,2241,-6675
8.797286,156,3036,-8055
8.798487,554,3148,-7734
8.825153,602,3441,-7532
8.826353,621,3593,-7483
8.827554,522,3546,-6533
8.828754,534,3336,-6284
8.829955,546,3057,-6316
8.831155,626,2600,-6313
8.832356,804,2598,-6284
8.833556,886,2417,-6346
8.834757,950,2340,-6457
8.835957,983,2326,-6698
8.837158,891,2387,-7127
8.838358,831,2417,-7164
8.839559,732,2436,-7396
8.840759,608,2449,-7640
8.841960,595,2493,-7553
8.843160,586,2487,-7417
8.844361,645,2452,-7470
8.845561,720,2407,-7553
8.846762,723,2418,-7490
8.847962,771,2435,-7404
8.825397,700,2509,-7385
8.826597,655,2569,-7277
8.827798,528,2687,-6997
8.828998,465,2763,-6797
8.830199,451,2883,-6043
8.831399,515,3074,-5938
8.832600,1020,3166,-4717
8.833800,1406,3690,-3391
8.835001,1238,3749,-2718
8.836201,815,3642,-538
8.837402,753,3729,153
8.838602,836,3807,619
8.839803,1050,3683,730
8.841003,853,3439,1165
8.842204,881,3259,692
8.843404,1007,3346,700
8.844605,1048,3000,922
8.845805,1034,3201,585
8.847006,1013,3075,-213
8.848206,1019,3256,-151
8.875507,1214,3372,-283
8.876708,931,3252,-698
8.877908,844,3359,-788
8.879109,973,3483,-1021
8.880309,1336,3781,-1240
8.881510,1389,3973,-1519
8.882710,1266,4032,-1895
8.883911,1217,4079,-2206
8.885111,1229,4153,-2423
8.886312,1240,4112,-2523
8.887512,1205,4065,-2726
8.888713,1243,3972,-2802
8.889913,1241,3804,-2813
8.891113,1252,3673,-2797
8.892314,1304,3604,-2727
8.893514,1298,3493,-2546
8.894715,1303,3453,-2494
8.895915,1312,3438,-2361
8.897116,1335,3410,-2257
8.898316,1339,3401,-2238
8.924022,1365,3367,-2155
8.925223,1365,3315,-2083
8.926423,1362,3283,-2022
8.927624,1365,3250,-1997
8.928824,1359,3192,-1991
8.930025,1379,3163,-2016
8.931225,1375,3111,-2003
8.932426,1366,3046,-2017
8.933626,1375,3018,-2030
8.934827,1390,2969,-2023
8.936027,1392,2897,-2051
8.937228,1385,2867,-2060
8.938428,1374,2797,-2110
8.939629,1365,2725,-2129
8.940829,1368,2703,-2195
8.942030,1361,2680,-2271
8.943230,1384,2639,-2316
8.944431,1366,2594,-2398
8.945631,1349,2568,-2466
8.946832,1368,2560,-2545
8.973577,1354,2531,-2558
8.974777,1379,2514,-2632
8.975978,1345,2506,-2681
8.977178,1361,2490,-2669
8.978379,1337,2474,-2680
8.979579,1332,2495,-2704
8.980780,1354,2487,-2689
8.981980,1346,2498,-2714
8.983181,1362,2514,-2692
8.984381,2121,1790,18027
8.985582,1671,2879,26871
8.986782,1297,5364,20764
8.987983,1642,5494,4335
8.989183,2928,3789,-1405
8.990384,2897,2838,-2628
8.991584,1528,1906,-4751
8.992785,254,1504,-6449
8.993985,425,2015,-7178
8.995186,586,2639,-8172
8.996386,679,2820,-8604
8.973751,594,3132,-8508
8.974951,583,3329,-8376
8.976152,652,3284,-8272
8.977352,590,2986,-8210
8.978553,639,2594,-8239
8.979753,778,2282,-8278
8.980954,1089,2188,-8239
8.982154,1309,2048,-8337
8.983354,1349,2022,-8315
8.984555,1402,2073,-8334
8.985755,1069,2276,-8202
8.986956,830,2396,-7983
8.988156,634,2686,-7526
8.989357,671,2774,-6878
8.990557,716,2832,-6154
8.991758,779,2848,-5912
8.992958,1062,2865,-5192
8.994159,1364,3228,-4213
8.995359,1450,3516,-3669
8.996560,1197,3394,-1931
9.026763,921,3487,-1079
9.027964,969,3679,-411
9.029164,1024,3770,85
9.030364,1065,3784,655
9.031565,1150,3894,1035
9.032765,1177,4066,1138
9.033966,1228,4185,1196
9.035166,1177,4207,1108
9.036367,1164,4292,1021
9.037567,1140,4363,752
9.038768,1172,4421,407
9.039968,1003,4417,55
9.041169,992,4173,-167
9.042369,1085,4008,-534
9.043570,1331,3900,-891
9.044770,1418,3920,-1582
9.045971,1407,3597,-1847
9.047171,1297,3459,-2387
9.048372,1385,3315,-2761
9.049572,1360,3051,-2918
9.063128,1222,2931,-3171
9.064329,1244,2856,-3388
9.065529,1267,2774,-3790
9.066730,1232,2716,-3600
9.067930,1253,2684,-3394
9.069131,1281,2713,-3305
9.070331,1265,2718,-3226
9.071532,1255,2759,-3014
9.072732,1300,2845,-2838
9.073932,1325,2873,-2762
9.075133,1305,2900,-2593
9.076333,1304,2921,-2510
9.077534,1289,2931,-2461
9.078734,1298,2906,-2426
9.079935,1308,2897,-2392
9.081135,1323,2878,-2373
9.082336,1341,2843,-2370
9.083536,1354,2801,-2347
9.084737,1356,2788,-2309
9.085937,1360,2734,-2289
9.117074,1380,2708,-2292
9.118274,1378,2673,-2262
9.119475,1371,2632,-2274
9.120675,1396,2592,-2275
9.121876,1397,2536,-2268
9.123076,1395,2516,-2285
9.124277,1407,2457,-2546
9.125477,1415,2427,-2315
9.126678,1411,2406,-2342
9.127878,1433,2357,-2346
9.129079,1438,2356,-2340
9.130279,1418,2398,-2306
9.131480,1414,2444,-2306
9.132680,1448,2521,-2273
9.133881,1455,2614,-2250
9.135081,1431,2694,-2208
9.136282,1417,2825,-2166
9.137482,1422,2950,-2143
9.138682,1417,3091,-2126
9.139883,1422,3157,-2108
9.117246,1403,3253,-2059
9.118446,1403,3346,-2038
9.119647,1408,3394,-1973
9.120847,1390,3482,-1980
9.122048,1396,3539,-1976
9.123248,1617,5046,23809
9.124449,1203,5930,32764
9.125649,61,6915,13865
9.126850,1457,5843,2872
9.128050,3369,4324,-3350
9.129251,1981,2363,-5256
9.130451,956,1235,-6009
9.131652,51,1397,-7529
9.132852,411,1671,-8860
9.134053,577,2203,-9362
9.135253,567,2611,-9829
9.136454,519,2867,-9499
9.137654,532,3315,-9150
9.138855,464,3387,-9128
9.140055,422,3075,-8978
9.166209,570,3072,-8828
9.167409,603,2757,-8782
9.168610,864,2468,-8944
9.169810,1092,2393,-9133
9.171011,1163,2261,-9111
9.172211,1110,2318,-9014
9.173412,700,2340,-8732
9.174612,471,2449,-8050
9.175813,757,2752,-7843
9.177013,567,2858,-7163
9.178214,693,2927,-6786
9.179414,974,2909,-6065
9.180615,1196,2860,-5417
9.181815,1540,2451,-4403
9.183016,1272,2354,-1884
9.184216,873,2703,-1408
9.185417,741,3097,-723
9.186617,815,3304,133
9.187818,866,3621,1016
9.189018,920,3945,1056
9.208524,1064,4081,1279
